  #r(a)       PDF
  0.010     0.00000
  0.020     0.00000
  0.030     0.00000
  0.040     0.00000
  0.050     0.00000
  0.060     0.00000
  0.070     0.00000
  0.080     0.00000
  0.090     0.00000
  0.100     0.00000
  0.110     0.00000
  0.120     0.00000
  0.130     0.00000
  0.140     0.00000
  0.150     0.00000
  0.160     0.00000
  0.170     0.00000
  0.180     0.00000
  0.190     0.00000
  0.200     0.00000
  0.210     0.00000
  0.220     0.00000
  0.230     0.00000
  0.240     0.00000
  0.250     0.00000
  0.260     0.00000
  0.270     0.00000
  0.280     0.00000
  0.290     0.00000
  0.300     0.00000
  0.310     0.00000
  0.320     0.00000
  0.330     0.00000
  0.340     0.00000
  0.350     0.00000
  0.360     0.00000
  0.370     0.00000
  0.380     0.00000
  0.390     0.00000
  0.400     0.00000
  0.410     0.00000
  0.420     0.00000
  0.430     0.00000
  0.440     0.00000
  0.450     0.00000
  0.460     0.00000
  0.470     0.00000
  0.480     0.00000
  0.490     0.00000
  0.500     0.00000
  0.510     0.00000
  0.520     0.00000
  0.530     0.00000
  0.540     0.00000
  0.550     0.00000
  0.560     0.00000
  0.570     0.00000
  0.580     0.00000
  0.590     0.00000
  0.600     0.00000
  0.610     0.00000
  0.620     0.00000
  0.630     0.00000
  0.640     0.00000
  0.650     0.00000
  0.660     0.00000
  0.670     0.00000
  0.680     0.00000
  0.690     0.00000
  0.700     0.00000
  0.710     0.00000
  0.720     0.00000
  0.730     0.00000
  0.740     0.00000
  0.750     0.00000
  0.760     0.00000
  0.770     0.00000
  0.780     0.00000
  0.790     0.00000
  0.800     0.00000
  0.810     0.00000
  0.820     0.00000
  0.830     0.00000
  0.840     0.00000
  0.850     0.00000
  0.860     0.00000
  0.870     0.00000
  0.880     0.00000
  0.890     0.00000
  0.900     0.00000
  0.910     0.00000
  0.920     0.00000
  0.930     0.00000
  0.940     0.00000
  0.950     0.00000
  0.960     0.00000
  0.970     0.00000
  0.980     0.00000
  0.990     0.00000
  1.000     0.00000
  1.010     0.00000
  1.020     0.00000
  1.030     0.00000
  1.040     0.00000
  1.050     0.00000
  1.060     0.00000
  1.070     0.00000
  1.080     0.00000
  1.090     0.00000
  1.100     0.00000
  1.110     0.00000
  1.120     0.00000
  1.130     0.00000
  1.140     0.00000
  1.150     0.00000
  1.160     0.00000
  1.170     0.00000
  1.180     0.00000
  1.190     0.00000
  1.200     0.00000
  1.210     0.00000
  1.220     0.00000
  1.230     0.00000
  1.240     0.00000
  1.250     0.00000
  1.260     0.00000
  1.270     0.00000
  1.280     0.00000
  1.290     0.00000
  1.300     0.00000
  1.310     0.00000
  1.320     0.00000
  1.330     0.00000
  1.340     0.00000
  1.350     0.00000
  1.360     0.00000
  1.370     0.00000
  1.380     0.00000
  1.390     0.00000
  1.400     0.00000
  1.410     0.00000
  1.420     0.00000
  1.430     0.00000
  1.440     0.00000
  1.450     0.00000
  1.460     0.00000
  1.470     0.00000
  1.480     0.00000
  1.490     0.00000
  1.500     0.00000
  1.510     0.00000
  1.520     0.00000
  1.530     0.00000
  1.540     0.00000
  1.550     0.00000
  1.560     0.00000
  1.570     0.00000
  1.580     0.00000
  1.590     0.00000
  1.600     0.00000
  1.610     0.00000
  1.620     0.00000
  1.630     0.00000
  1.640     0.00000
  1.650     0.00000
  1.660     0.00000
  1.670     0.00000
  1.680     0.00000
  1.690     0.00000
  1.700     0.00000
  1.710     0.00000
  1.720     0.00000
  1.730     0.00000
  1.740     0.00000
  1.750     0.00000
  1.760     0.00000
  1.770     0.00000
  1.780     0.00000
  1.790     0.00000
  1.800     0.00000
  1.810     0.00000
  1.820     0.00000
  1.830     0.00000
  1.840     0.00000
  1.850     0.00000
  1.860     0.00000
  1.870     0.00000
  1.880     0.00000
  1.890     0.00000
  1.900     0.00000
  1.910     0.00000
  1.920     0.00000
  1.930     0.00000
  1.940     0.00000
  1.950     0.00000
  1.960     0.00000
  1.970     0.00000
  1.980     0.00000
  1.990     0.00000
  2.000     0.00000
  2.010     0.00000
  2.020     0.00000
  2.030     0.00000
  2.040     0.00000
  2.050     0.00000
  2.060     0.00000
  2.070     0.00000
  2.080     0.00000
  2.090     0.00000
  2.100     0.00000
  2.110     0.00000
  2.120     0.00000
  2.130     0.00000
  2.140     0.00000
  2.150     0.00000
  2.160     0.00000
  2.170     0.00000
  2.180     0.00000
  2.190     0.00000
  2.200     0.00000
  2.210     0.00000
  2.220     0.00000
  2.230     0.00000
  2.240     0.00000
  2.250     0.00000
  2.260     0.00000
  2.270     0.00000
  2.280     0.00019
  2.290     0.00038
  2.300     0.00038
  2.310     0.00038
  2.320     0.00019
  2.330     0.00047
  2.340     0.00056
  2.350     0.00084
  2.360     0.00102
  2.370     0.00064
  2.380     0.00147
  2.390     0.00283
  2.400     0.00291
  2.410     0.00371
  2.420     0.00324
  2.430     0.00502
  2.440     0.00465
  2.450     0.00757
  2.460     0.00825
  2.470     0.00927
  2.480     0.01302
  2.490     0.01550
  2.500     0.01675
  2.510     0.02059
  2.520     0.02216
  2.530     0.03017
  2.540     0.02980
  2.550     0.03413
  2.560     0.03817
  2.570     0.04328
  2.580     0.04641
  2.590     0.04573
  2.600     0.05167
  2.610     0.05373
  2.620     0.05469
  2.630     0.05888
  2.640     0.06213
  2.650     0.06495
  2.660     0.06330
  2.670     0.06454
  2.680     0.06316
  2.690     0.06552
  2.700     0.05962
  2.710     0.06101
  2.720     0.06367
  2.730     0.05617
  2.740     0.05556
  2.750     0.05441
  2.760     0.05382
  2.770     0.04543
  2.780     0.04606
  2.790     0.04144
  2.800     0.03381
  2.810     0.03346
  2.820     0.03102
  2.830     0.03060
  2.840     0.02665
  2.850     0.02120
  2.860     0.02189
  2.870     0.01915
  2.880     0.01613
  2.890     0.01562
  2.900     0.01203
  2.910     0.01132
  2.920     0.00979
  2.930     0.00804
  2.940     0.00816
  2.950     0.00643
  2.960     0.00597
  2.970     0.00676
  2.980     0.00498
  2.990     0.00321
  3.000     0.00444
  3.010     0.00312
  3.020     0.00282
  3.030     0.00223
  3.040     0.00194
  3.050     0.00200
  3.060     0.00185
  3.070     0.00142
  3.080     0.00128
  3.090     0.00141
  3.100     0.00120
  3.110     0.00098
  3.120     0.00126
  3.130     0.00091
  3.140     0.00083
  3.150     0.00118
  3.160     0.00083
  3.170     0.00069
  3.180     0.00062
  3.190     0.00062
  3.200     0.00082
  3.210     0.00082
  3.220     0.00054
  3.230     0.00034
  3.240     0.00040
  3.250     0.00054
  3.260     0.00060
  3.270     0.00080
  3.280     0.00086
  3.290     0.00040
  3.300     0.00059
  3.310     0.00040
  3.320     0.00026
  3.330     0.00020
  3.340     0.00033
  3.350     0.00052
  3.360     0.00058
  3.370     0.00052
  3.380     0.00045
  3.390     0.00051
  3.400     0.00083
  3.410     0.00070
  3.420     0.00102
  3.430     0.00083
  3.440     0.00082
  3.450     0.00152
  3.460     0.00164
  3.470     0.00126
  3.480     0.00150
  3.490     0.00225
  3.500     0.00199
  3.510     0.00205
  3.520     0.00260
  3.530     0.00247
  3.540     0.00283
  3.550     0.00362
  3.560     0.00411
  3.570     0.00483
  3.580     0.00524
  3.590     0.00456
  3.600     0.00545
  3.610     0.00647
  3.620     0.00729
  3.630     0.00775
  3.640     0.00767
  3.650     0.00783
  3.660     0.00959
  3.670     0.01206
  3.680     0.01203
  3.690     0.01099
  3.700     0.01267
  3.710     0.01387
  3.720     0.01278
  3.730     0.01567
  3.740     0.01452
  3.750     0.01710
  3.760     0.01543
  3.770     0.01759
  3.780     0.01650
  3.790     0.01761
  3.800     0.01791
  3.810     0.01975
  3.820     0.01953
  3.830     0.01999
  3.840     0.01897
  3.850     0.01909
  3.860     0.01684
  3.870     0.01719
  3.880     0.01428
  3.890     0.01497
  3.900     0.01381
  3.910     0.01255
  3.920     0.01402
  3.930     0.01254
  3.940     0.01185
  3.950     0.00983
  3.960     0.01074
  3.970     0.00917
  3.980     0.00718
  3.990     0.00809
  4.000     0.00703
  4.010     0.00609
  4.020     0.00662
  4.030     0.00574
  4.040     0.00583
  4.050     0.00431
  4.060     0.00398
  4.070     0.00429
  4.080     0.00385
  4.090     0.00299
  4.100     0.00314
  4.110     0.00292
  4.120     0.00291
  4.130     0.00195
  4.140     0.00221
  4.150     0.00152
  4.160     0.00142
  4.170     0.00235
  4.180     0.00110
  4.190     0.00276
  4.200     0.00182
  4.210     0.00166
  4.220     0.00165
  4.230     0.00217
  4.240     0.00170
  4.250     0.00180
  4.260     0.00179
  4.270     0.00220
  4.280     0.00224
  4.290     0.00280
  4.300     0.00294
  4.310     0.00380
  4.320     0.00414
  4.330     0.00489
  4.340     0.00487
  4.350     0.00461
  4.360     0.00645
  4.370     0.00659
  4.380     0.00847
  4.390     0.00835
  4.400     0.01071
  4.410     0.01335
  4.420     0.01125
  4.430     0.01413
  4.440     0.01631
  4.450     0.01750
  4.460     0.01863
  4.470     0.02093
  4.480     0.02176
  4.490     0.02604
  4.500     0.02860
  4.510     0.03076
  4.520     0.03276
  4.530     0.03563
  4.540     0.03714
  4.550     0.04147
  4.560     0.04377
  4.570     0.04491
  4.580     0.04800
  4.590     0.05056
  4.600     0.05211
  4.610     0.05271
  4.620     0.05387
  4.630     0.05370
  4.640     0.05523
  4.650     0.05474
  4.660     0.05533
  4.670     0.05740
  4.680     0.05803
  4.690     0.05809
  4.700     0.05560
  4.710     0.05585
  4.720     0.05204
  4.730     0.05100
  4.740     0.04942
  4.750     0.04932
  4.760     0.04482
  4.770     0.04289
  4.780     0.04002
  4.790     0.03811
  4.800     0.03640
  4.810     0.03333
  4.820     0.03050
  4.830     0.03039
  4.840     0.02605
  4.850     0.02420
  4.860     0.02262
  4.870     0.01921
  4.880     0.01877
  4.890     0.01472
  4.900     0.01460
  4.910     0.01462
  4.920     0.01219
  4.930     0.01102
  4.940     0.00932
  4.950     0.00925
  4.960     0.00858
  4.970     0.00768
  4.980     0.00587
  4.990     0.00691
  5.000     0.00550
  5.010     0.00583
  5.020     0.00526
  5.030     0.00520
  5.040     0.00532
  5.050     0.00428
  5.060     0.00522
  5.070     0.00508
  5.080     0.00477
  5.090     0.00489
  5.100     0.00513
  5.110     0.00461
  5.120     0.00554
  5.130     0.00604
  5.140     0.00704
  5.150     0.00775
  5.160     0.00723
  5.170     0.00877
  5.180     0.00968
  5.190     0.01004
  5.200     0.01191
  5.210     0.00963
  5.220     0.01308
  5.230     0.01255
  5.240     0.01449
  5.250     0.01616
  5.260     0.01742
  5.270     0.01858
  5.280     0.01900
  5.290     0.02037
  5.300     0.01889
  5.310     0.02025
  5.320     0.02316
  5.330     0.02369
  5.340     0.02247
  5.350     0.02434
  5.360     0.02450
  5.370     0.02498
  5.380     0.02307
  5.390     0.02404
  5.400     0.02302
  5.410     0.02234
  5.420     0.02346
  5.430     0.02398
  5.440     0.02129
  5.450     0.02069
  5.460     0.02173
  5.470     0.01858
  5.480     0.02006
  5.490     0.01994
  5.500     0.01844
  5.510     0.01477
  5.520     0.01517
  5.530     0.01424
  5.540     0.01374
  5.550     0.01328
  5.560     0.01118
  5.570     0.01163
  5.580     0.01012
  5.590     0.00905
  5.600     0.00841
  5.610     0.00863
  5.620     0.00784
  5.630     0.00740
  5.640     0.00688
  5.650     0.00726
  5.660     0.00698
  5.670     0.00627
  5.680     0.00718
  5.690     0.00655
  5.700     0.00540
  5.710     0.00791
  5.720     0.00766
  5.730     0.00788
  5.740     0.00718
  5.750     0.00948
  5.760     0.00886
  5.770     0.01096
  5.780     0.01094
  5.790     0.01341
  5.800     0.01388
  5.810     0.01367
  5.820     0.01698
  5.830     0.01706
  5.840     0.01699
  5.850     0.02084
  5.860     0.02062
  5.870     0.02285
  5.880     0.02411
  5.890     0.02577
  5.900     0.02658
  5.910     0.02919
  5.920     0.02933
  5.930     0.03380
  5.940     0.03459
  5.950     0.03306
  5.960     0.03565
  5.970     0.03646
  5.980     0.03957
  5.990     0.03867
  6.000     0.03981
  6.010     0.04014
  6.020     0.03971
  6.030     0.03907
  6.040     0.03857
  6.050     0.03908
  6.060     0.03700
  6.070     0.03654
  6.080     0.03595
  6.090     0.03596
  6.100     0.03619
  6.110     0.03559
  6.120     0.03076
  6.130     0.03192
  6.140     0.02938
  6.150     0.02922
  6.160     0.02705
  6.170     0.02316
  6.180     0.02259
  6.190     0.02178
  6.200     0.02135
  6.210     0.01985
  6.220     0.01848
  6.230     0.01747
  6.240     0.01559
  6.250     0.01567
  6.260     0.01230
  6.270     0.01172
  6.280     0.01139
  6.290     0.01058
  6.300     0.01018
  6.310     0.00996
  6.320     0.00953
  6.330     0.00748
  6.340     0.00778
  6.350     0.00756
  6.360     0.00785
  6.370     0.00794
  6.380     0.00817
  6.390     0.00727
  6.400     0.00808
  6.410     0.00837
  6.420     0.00900
  6.430     0.00784
  6.440     0.00806
  6.450     0.00937
  6.460     0.00922
  6.470     0.00937
  6.480     0.01043
  6.490     0.01042
  6.500     0.01023
  6.510     0.00995
  6.520     0.01131
  6.530     0.01152
  6.540     0.01134
  6.550     0.01219
  6.560     0.01230
  6.570     0.01182
  6.580     0.01273
  6.590     0.01218
  6.600     0.01385
  6.610     0.01313
  6.620     0.01328
  6.630     0.01253
  6.640     0.01232
  6.650     0.01250
  6.660     0.01254
  6.670     0.01423
  6.680     0.01247
  6.690     0.01170
  6.700     0.01143
  6.710     0.01183
  6.720     0.01155
  6.730     0.01128
  6.740     0.01126
  6.750     0.01050
  6.760     0.01226
  6.770     0.01070
  6.780     0.01174
  6.790     0.01102
  6.800     0.01164
  6.810     0.01211
  6.820     0.01276
  6.830     0.01392
  6.840     0.01531
  6.850     0.01516
  6.860     0.01577
  6.870     0.01607
  6.880     0.01915
  6.890     0.02083
  6.900     0.02292
  6.910     0.02487
  6.920     0.02660
  6.930     0.02754
  6.940     0.03105
  6.950     0.03336
  6.960     0.03407
  6.970     0.03546
  6.980     0.03812
  6.990     0.04222
  7.000     0.04415
  7.010     0.04568
  7.020     0.04915
  7.030     0.04874
  7.040     0.05264
  7.050     0.05553
  7.060     0.05487
  7.070     0.05964
  7.080     0.06091
  7.090     0.06002
  7.100     0.05834
  7.110     0.06246
  7.120     0.06194
  7.130     0.06336
  7.140     0.06177
  7.150     0.06361
  7.160     0.06382
  7.170     0.06127
  7.180     0.06173
  7.190     0.05946
  7.200     0.05723
  7.210     0.05409
  7.220     0.05326
  7.230     0.05153
  7.240     0.04896
  7.250     0.04708
  7.260     0.04618
  7.270     0.03948
  7.280     0.03835
  7.290     0.03677
  7.300     0.03394
  7.310     0.03097
  7.320     0.03057
  7.330     0.02925
  7.340     0.02541
  7.350     0.02398
  7.360     0.02131
  7.370     0.02143
  7.380     0.01829
  7.390     0.01747
  7.400     0.01716
  7.410     0.01590
  7.420     0.01502
  7.430     0.01444
  7.440     0.01325
  7.450     0.01338
  7.460     0.01260
  7.470     0.01127
  7.480     0.01035
  7.490     0.01072
  7.500     0.01000
  7.510     0.01153
  7.520     0.00969
  7.530     0.00996
  7.540     0.00946
  7.550     0.01040
  7.560     0.00877
  7.570     0.00968
  7.580     0.00858
  7.590     0.00882
  7.600     0.00939
  7.610     0.00937
  7.620     0.00953
  7.630     0.01009
  7.640     0.00934
  7.650     0.00975
  7.660     0.00928
  7.670     0.00930
  7.680     0.00934
  7.690     0.00964
  7.700     0.00949
  7.710     0.00973
  7.720     0.00856
  7.730     0.01016
  7.740     0.00981
  7.750     0.00872
  7.760     0.01037
  7.770     0.01039
  7.780     0.01091
  7.790     0.01210
  7.800     0.01102
  7.810     0.01304
  7.820     0.01367
  7.830     0.01290
  7.840     0.01427
  7.850     0.01553
  7.860     0.01712
  7.870     0.01818
  7.880     0.01924
  7.890     0.01910
  7.900     0.02057
  7.910     0.02253
  7.920     0.02379
  7.930     0.02511
  7.940     0.02643
  7.950     0.02804
  7.960     0.02946
  7.970     0.03079
  7.980     0.03023
  7.990     0.03388
  8.000     0.03539
  8.010     0.03502
  8.020     0.03650
  8.030     0.03515
  8.040     0.03641
  8.050     0.03677
  8.060     0.03970
  8.070     0.03724
  8.080     0.04009
  8.090     0.03955
  8.100     0.04028
  8.110     0.03970
  8.120     0.03777
  8.130     0.03775
  8.140     0.03668
  8.150     0.03739
  8.160     0.03657
  8.170     0.03479
  8.180     0.03642
  8.190     0.03369
  8.200     0.03248
  8.210     0.03270
  8.220     0.03245
  8.230     0.02947
  8.240     0.02912
  8.250     0.02914
  8.260     0.02905
  8.270     0.02685
  8.280     0.02647
  8.290     0.02594
  8.300     0.02378
  8.310     0.02572
  8.320     0.02477
  8.330     0.02443
  8.340     0.02205
  8.350     0.02307
  8.360     0.02223
  8.370     0.02322
  8.380     0.02350
  8.390     0.02392
  8.400     0.02503
  8.410     0.02495
  8.420     0.02477
  8.430     0.02414
  8.440     0.02610
  8.450     0.02429
  8.460     0.02519
  8.470     0.02519
  8.480     0.02593
  8.490     0.02682
  8.500     0.02520
  8.510     0.02776
  8.520     0.02862
  8.530     0.02872
  8.540     0.02592
  8.550     0.02413
  8.560     0.02625
  8.570     0.02543
  8.580     0.02420
  8.590     0.02473
  8.600     0.02597
  8.610     0.02505
  8.620     0.02495
  8.630     0.02335
  8.640     0.02312
  8.650     0.02146
  8.660     0.02184
  8.670     0.02123
  8.680     0.02113
  8.690     0.02169
  8.700     0.02184
  8.710     0.02204
  8.720     0.01946
  8.730     0.01986
  8.740     0.02076
  8.750     0.01917
  8.760     0.02039
  8.770     0.02077
  8.780     0.02072
  8.790     0.02122
  8.800     0.02099
  8.810     0.02109
  8.820     0.02095
  8.830     0.02295
  8.840     0.02268
  8.850     0.02208
  8.860     0.02386
  8.870     0.02395
  8.880     0.02297
  8.890     0.02397
  8.900     0.02571
  8.910     0.02509
  8.920     0.02362
  8.930     0.02521
  8.940     0.02608
  8.950     0.02574
  8.960     0.02503
  8.970     0.02456
  8.980     0.02665
  8.990     0.02395
  9.000     0.02428
  9.010     0.02418
  9.020     0.02387
  9.030     0.02362
  9.040     0.02393
  9.050     0.02290
  9.060     0.02133
  9.070     0.02169
  9.080     0.02359
  9.090     0.02162
  9.100     0.02057
  9.110     0.02253
  9.120     0.02152
  9.130     0.02124
  9.140     0.02081
  9.150     0.02088
  9.160     0.02269
  9.170     0.02107
  9.180     0.02172
  9.190     0.02181
  9.200     0.01930
  9.210     0.02004
  9.220     0.02143
  9.230     0.02295
  9.240     0.02330
  9.250     0.02403
  9.260     0.02560
  9.270     0.02393
  9.280     0.02548
  9.290     0.02562
  9.300     0.02589
  9.310     0.02486
  9.320     0.02530
  9.330     0.02747
  9.340     0.02623
  9.350     0.02645
  9.360     0.02668
  9.370     0.02791
  9.380     0.02818
  9.390     0.02778
  9.400     0.02852
  9.410     0.02895
  9.420     0.02955
  9.430     0.03014
  9.440     0.03202
  9.450     0.03284
  9.460     0.03189
  9.470     0.03499
  9.480     0.03244
  9.490     0.03700
  9.500     0.03582
  9.510     0.03839
  9.520     0.03771
  9.530     0.03884
  9.540     0.04264
  9.550     0.04230
  9.560     0.04360
  9.570     0.04647
  9.580     0.04640
  9.590     0.04751
  9.600     0.05008
  9.610     0.05154
  9.620     0.05333
  9.630     0.05298
  9.640     0.05503
  9.650     0.05526
  9.660     0.05726
  9.670     0.05704
  9.680     0.05615
  9.690     0.05830
  9.700     0.05880
  9.710     0.05962
  9.720     0.05868
  9.730     0.05719
  9.740     0.05901
  9.750     0.05868
  9.760     0.05701
  9.770     0.05644
  9.780     0.05386
  9.790     0.05459
  9.800     0.05364
  9.810     0.04914
  9.820     0.04815
  9.830     0.04646
  9.840     0.04546
  9.850     0.04305
  9.860     0.04090
  9.870     0.03781
  9.880     0.03601
  9.890     0.03423
  9.900     0.03349
  9.910     0.03110
  9.920     0.02797
  9.930     0.02680
  9.940     0.02550
  9.950     0.02433
  9.960     0.02225
  9.970     0.02087
  9.980     0.01952
  9.990     0.01751
 10.000     0.01767
 10.010     0.01589
 10.020     0.01441
 10.030     0.01342
 10.040     0.01293
 10.050     0.01315
 10.060     0.01143
 10.070     0.01196
 10.080     0.01093
 10.090     0.01070
 10.100     0.01075
 10.110     0.01148
 10.120     0.01104
 10.130     0.01079
 10.140     0.01217
 10.150     0.00993
 10.160     0.01198
 10.170     0.01250
 10.180     0.01346
 10.190     0.01428
 10.200     0.01484
 10.210     0.01596
 10.220     0.01663
 10.230     0.01740
 10.240     0.01768
 10.250     0.01811
 10.260     0.01856
 10.270     0.02132
 10.280     0.02183
 10.290     0.02338
 10.300     0.02348
 10.310     0.02664
 10.320     0.02644
 10.330     0.02882
 10.340     0.02844
 10.350     0.02862
 10.360     0.03114
 10.370     0.03283
 10.380     0.03032
 10.390     0.03367
 10.400     0.03416
 10.410     0.03514
 10.420     0.03492
 10.430     0.03515
 10.440     0.03378
 10.450     0.03352
 10.460     0.03505
 10.470     0.03571
 10.480     0.03411
 10.490     0.03512
 10.500     0.03270
 10.510     0.03462
 10.520     0.03228
 10.530     0.03341
 10.540     0.03280
 10.550     0.03169
 10.560     0.03030
 10.570     0.02941
 10.580     0.02870
 10.590     0.02682
 10.600     0.02677
 10.610     0.02525
 10.620     0.02691
 10.630     0.02557
 10.640     0.02446
 10.650     0.02323
 10.660     0.02390
 10.670     0.02226
 10.680     0.02167
 10.690     0.02134
 10.700     0.02018
 10.710     0.02075
 10.720     0.01980
 10.730     0.02006
 10.740     0.01935
 10.750     0.01956
 10.760     0.01806
 10.770     0.01786
 10.780     0.01868
 10.790     0.01918
 10.800     0.01852
 10.810     0.01889
 10.820     0.01875
 10.830     0.01855
 10.840     0.02060
 10.850     0.02000
 10.860     0.02008
 10.870     0.02063
 10.880     0.02129
 10.890     0.02101
 10.900     0.02101
 10.910     0.02265
 10.920     0.02215
 10.930     0.02363
 10.940     0.02556
 10.950     0.02584
 10.960     0.02541
 10.970     0.02736
 10.980     0.02710
 10.990     0.02791
 11.000     0.02923
 11.010     0.03019
 11.020     0.03054
 11.030     0.03213
 11.040     0.03108
 11.050     0.03381
 11.060     0.03244
 11.070     0.03344
 11.080     0.03445
 11.090     0.03556
 11.100     0.03541
 11.110     0.03638
 11.120     0.03627
 11.130     0.03547
 11.140     0.03612
 11.150     0.03654
 11.160     0.03584
 11.170     0.03663
 11.180     0.03553
 11.190     0.03577
 11.200     0.03502
 11.210     0.03479
 11.220     0.03379
 11.230     0.03339
 11.240     0.03326
 11.250     0.03395
 11.260     0.03402
 11.270     0.03395
 11.280     0.03353
 11.290     0.03217
 11.300     0.03162
 11.310     0.03190
 11.320     0.03239
 11.330     0.03173
 11.340     0.03183
 11.350     0.03073
 11.360     0.03141
 11.370     0.03300
 11.380     0.03209
 11.390     0.03125
 11.400     0.03165
 11.410     0.03185
 11.420     0.03281
 11.430     0.03091
 11.440     0.03287
 11.450     0.03246
 11.460     0.03342
 11.470     0.03278
 11.480     0.03515
 11.490     0.03423
 11.500     0.03439
 11.510     0.03591
 11.520     0.03512
 11.530     0.03666
 11.540     0.03797
 11.550     0.03703
 11.560     0.03832
 11.570     0.03902
 11.580     0.04003
 11.590     0.04026
 11.600     0.04210
 11.610     0.04236
 11.620     0.04252
 11.630     0.04321
 11.640     0.04435
 11.650     0.04525
 11.660     0.04505
 11.670     0.04611
 11.680     0.04514
 11.690     0.04745
 11.700     0.04728
 11.710     0.04662
 11.720     0.04738
 11.730     0.04909
 11.740     0.04695
 11.750     0.04756
 11.760     0.04846
 11.770     0.04833
 11.780     0.04855
 11.790     0.04621
 11.800     0.04643
 11.810     0.04658
 11.820     0.04722
 11.830     0.04525
 11.840     0.04512
 11.850     0.04397
 11.860     0.04335
 11.870     0.04103
 11.880     0.04173
 11.890     0.04007
 11.900     0.03961
 11.910     0.03776
 11.920     0.03925
 11.930     0.03914
 11.940     0.03705
 11.950     0.03455
 11.960     0.03425
 11.970     0.03429
 11.980     0.03277
 11.990     0.03285
 12.000     0.03190
 12.010     0.03095
 12.020     0.03085
 12.030     0.02892
 12.040     0.03237
 12.050     0.02963
 12.060     0.03026
 12.070     0.02964
 12.080     0.02967
 12.090     0.02890
 12.100     0.02936
 12.110     0.02900
 12.120     0.02919
 12.130     0.02884
 12.140     0.02963
 12.150     0.02806
 12.160     0.02866
 12.170     0.03015
 12.180     0.02896
 12.190     0.03062
 12.200     0.02925
 12.210     0.03117
 12.220     0.03111
 12.230     0.03144
 12.240     0.03172
 12.250     0.03205
 12.260     0.03158
 12.270     0.03106
 12.280     0.03215
 12.290     0.03267
 12.300     0.03282
 12.310     0.03319
 12.320     0.03286
 12.330     0.03418
 12.340     0.03305
 12.350     0.03158
 12.360     0.03244
 12.370     0.03281
 12.380     0.03235
 12.390     0.03158
 12.400     0.03212
 12.410     0.03278
 12.420     0.03128
 12.430     0.03004
 12.440     0.03144
 12.450     0.02973
 12.460     0.02993
 12.470     0.03106
 12.480     0.02912
 12.490     0.02983
 12.500     0.02984
 12.510     0.02844
 12.520     0.02808
 12.530     0.02778
 12.540     0.02623
 12.550     0.02574
 12.560     0.02742
 12.570     0.02629
 12.580     0.02594
 12.590     0.02600
 12.600     0.02591
 12.610     0.02733
 12.620     0.02672
 12.630     0.02535
 12.640     0.02507
 12.650     0.02709
 12.660     0.02521
 12.670     0.02706
 12.680     0.02517
 12.690     0.02688
 12.700     0.02571
 12.710     0.02749
 12.720     0.02618
 12.730     0.02729
 12.740     0.02724
 12.750     0.02669
 12.760     0.02773
 12.770     0.02659
 12.780     0.02811
 12.790     0.02741
 12.800     0.02945
 12.810     0.02837
 12.820     0.02840
 12.830     0.02851
 12.840     0.03076
 12.850     0.02942
 12.860     0.02973
 12.870     0.02864
 12.880     0.02840
 12.890     0.02782
 12.900     0.02934
 12.910     0.03055
 12.920     0.02931
 12.930     0.02898
 12.940     0.02903
 12.950     0.02857
 12.960     0.02859
 12.970     0.02854
 12.980     0.02831
 12.990     0.02782
 13.000     0.02750
 13.010     0.02627
 13.020     0.02585
 13.030     0.02533
 13.040     0.02569
 13.050     0.02524
 13.060     0.02467
 13.070     0.02425
 13.080     0.02431
 13.090     0.02419
 13.100     0.02253
 13.110     0.02396
 13.120     0.02336
 13.130     0.02256
 13.140     0.02243
 13.150     0.02274
 13.160     0.02242
 13.170     0.02290
 13.180     0.02287
 13.190     0.02299
 13.200     0.02214
 13.210     0.02439
 13.220     0.02335
 13.230     0.02480
 13.240     0.02532
 13.250     0.02606
 13.260     0.02681
 13.270     0.02735
 13.280     0.02989
 13.290     0.02895
 13.300     0.02952
 13.310     0.03071
 13.320     0.02992
 13.330     0.03269
 13.340     0.03332
 13.350     0.03451
 13.360     0.03495
 13.370     0.03571
 13.380     0.03710
 13.390     0.03849
 13.400     0.03822
 13.410     0.04102
 13.420     0.04146
 13.430     0.04128
 13.440     0.04137
 13.450     0.04074
 13.460     0.04187
 13.470     0.04336
 13.480     0.04414
 13.490     0.04173
 13.500     0.04210
 13.510     0.04283
 13.520     0.04243
 13.530     0.04416
 13.540     0.04366
 13.550     0.04214
 13.560     0.04452
 13.570     0.04248
 13.580     0.04321
 13.590     0.04197
 13.600     0.04173
 13.610     0.04156
 13.620     0.04154
 13.630     0.04145
 13.640     0.03953
 13.650     0.04043
 13.660     0.04000
 13.670     0.04030
 13.680     0.03962
 13.690     0.03856
 13.700     0.03931
 13.710     0.03968
 13.720     0.03901
 13.730     0.03813
 13.740     0.03845
 13.750     0.03967
 13.760     0.03873
 13.770     0.03901
 13.780     0.03956
 13.790     0.04163
 13.800     0.03999
 13.810     0.03917
 13.820     0.03936
 13.830     0.04159
 13.840     0.04159
 13.850     0.04285
 13.860     0.04320
 13.870     0.04430
 13.880     0.04424
 13.890     0.04637
 13.900     0.04676
 13.910     0.04616
 13.920     0.04607
 13.930     0.04671
 13.940     0.04724
 13.950     0.04769
 13.960     0.04983
 13.970     0.05020
 13.980     0.04980
 13.990     0.05159
 14.000     0.05109
 14.010     0.05233
 14.020     0.05246
 14.030     0.05127
 14.040     0.05105
 14.050     0.05198
 14.060     0.05133
 14.070     0.05062
 14.080     0.05061
 14.090     0.05225
 14.100     0.04956
 14.110     0.05021
 14.120     0.04900
 14.130     0.04787
 14.140     0.04811
 14.150     0.04714
 14.160     0.04814
 14.170     0.04752
 14.180     0.04690
 14.190     0.04656
 14.200     0.04448
 14.210     0.04456
 14.220     0.04315
 14.230     0.04146
 14.240     0.04153
 14.250     0.03856
 14.260     0.04056
 14.270     0.03957
 14.280     0.03677
 14.290     0.03617
 14.300     0.03710
 14.310     0.03504
 14.320     0.03445
 14.330     0.03347
 14.340     0.03287
 14.350     0.03180
 14.360     0.03112
 14.370     0.03188
 14.380     0.03037
 14.390     0.03006
 14.400     0.02855
 14.410     0.02734
 14.420     0.02703
 14.430     0.02663
 14.440     0.02491
 14.450     0.02614
 14.460     0.02383
 14.470     0.02231
 14.480     0.02342
 14.490     0.02229
 14.500     0.02124
 14.510     0.02068
 14.520     0.02053
 14.530     0.01979
 14.540     0.01874
 14.550     0.01952
 14.560     0.01853
 14.570     0.01811
 14.580     0.01897
 14.590     0.01782
 14.600     0.01673
 14.610     0.01639
 14.620     0.01784
 14.630     0.01722
 14.640     0.01511
 14.650     0.01752
 14.660     0.01611
 14.670     0.01591
 14.680     0.01706
 14.690     0.01656
 14.700     0.01641
 14.710     0.01653
 14.720     0.01784
 14.730     0.01811
 14.740     0.01801
 14.750     0.01928
 14.760     0.02020
 14.770     0.02039
 14.780     0.02124
 14.790     0.02056
 14.800     0.02135
 14.810     0.02349
 14.820     0.02387
 14.830     0.02597
 14.840     0.02624
 14.850     0.02632
 14.860     0.02833
 14.870     0.02791
 14.880     0.02879
 14.890     0.02943
 14.900     0.03087
 14.910     0.03255
 14.920     0.03245
 14.930     0.03356
 14.940     0.03438
 14.950     0.03577
 14.960     0.03549
 14.970     0.03552
 14.980     0.03564
 14.990     0.03623
 15.000     0.03672
 15.010     0.03703
 15.020     0.03761
 15.030     0.03891
 15.040     0.03733
 15.050     0.03778
 15.060     0.03671
 15.070     0.03736
 15.080     0.03662
 15.090     0.03654
 15.100     0.03594
 15.110     0.03512
 15.120     0.03631
 15.130     0.03486
 15.140     0.03432
 15.150     0.03486
 15.160     0.03400
 15.170     0.03337
 15.180     0.03255
 15.190     0.03435
 15.200     0.03290
 15.210     0.03244
 15.220     0.03378
 15.230     0.03198
 15.240     0.03285
 15.250     0.03368
 15.260     0.03355
 15.270     0.03392
 15.280     0.03295
 15.290     0.03382
 15.300     0.03403
 15.310     0.03594
 15.320     0.03508
 15.330     0.03605
 15.340     0.03589
 15.350     0.03643
 15.360     0.03820
 15.370     0.03874
 15.380     0.03840
 15.390     0.03897
 15.400     0.04018
 15.410     0.03926
 15.420     0.03958
 15.430     0.04138
 15.440     0.04054
 15.450     0.04114
 15.460     0.04228
 15.470     0.04124
 15.480     0.04234
 15.490     0.04488
 15.500     0.04310
 15.510     0.04398
 15.520     0.04375
 15.530     0.04451
 15.540     0.04483
 15.550     0.04351
 15.560     0.04340
 15.570     0.04327
 15.580     0.04360
 15.590     0.04476
 15.600     0.04381
 15.610     0.04474
 15.620     0.04224
 15.630     0.04173
 15.640     0.04262
 15.650     0.04302
 15.660     0.04183
 15.670     0.04163
 15.680     0.04067
 15.690     0.04155
 15.700     0.04169
 15.710     0.04097
 15.720     0.03935
 15.730     0.03975
 15.740     0.03825
 15.750     0.03815
 15.760     0.03951
 15.770     0.03801
 15.780     0.03872
 15.790     0.03720
 15.800     0.03679
 15.810     0.03657
 15.820     0.03553
 15.830     0.03653
 15.840     0.03401
 15.850     0.03533
 15.860     0.03519
 15.870     0.03477
 15.880     0.03538
 15.890     0.03504
 15.900     0.03416
 15.910     0.03382
 15.920     0.03364
 15.930     0.03345
 15.940     0.03302
 15.950     0.03294
 15.960     0.03400
 15.970     0.03416
 15.980     0.03273
 15.990     0.03402
 16.000     0.03275
 16.010     0.03347
 16.020     0.03511
 16.030     0.03440
 16.040     0.03417
 16.050     0.03365
 16.060     0.03444
 16.070     0.03367
 16.080     0.03508
 16.090     0.03626
 16.100     0.03556
 16.110     0.03685
 16.120     0.03597
 16.130     0.03777
 16.140     0.03760
 16.150     0.03810
 16.160     0.03902
 16.170     0.03896
 16.180     0.03843
 16.190     0.03970
 16.200     0.03902
 16.210     0.04104
 16.220     0.04092
 16.230     0.04149
 16.240     0.04205
 16.250     0.04301
 16.260     0.04264
 16.270     0.04466
 16.280     0.04301
 16.290     0.04578
 16.300     0.04634
 16.310     0.04526
 16.320     0.04519
 16.330     0.04581
 16.340     0.04587
 16.350     0.04643
 16.360     0.04550
 16.370     0.04710
 16.380     0.04683
 16.390     0.04590
 16.400     0.04756
 16.410     0.04592
 16.420     0.04732
 16.430     0.04682
 16.440     0.04626
 16.450     0.04567
 16.460     0.04585
 16.470     0.04458
 16.480     0.04489
 16.490     0.04425
 16.500     0.04333
 16.510     0.04218
 16.520     0.04281
 16.530     0.04071
 16.540     0.04100
 16.550     0.04008
 16.560     0.03967
 16.570     0.03937
 16.580     0.03852
 16.590     0.03652
 16.600     0.03573
 16.610     0.03547
 16.620     0.03539
 16.630     0.03431
 16.640     0.03527
 16.650     0.03402
 16.660     0.03210
 16.670     0.03292
 16.680     0.03214
 16.690     0.03167
 16.700     0.03167
 16.710     0.03077
 16.720     0.02973
 16.730     0.02956
 16.740     0.03089
 16.750     0.02982
 16.760     0.02811
 16.770     0.02786
 16.780     0.02689
 16.790     0.02824
 16.800     0.02732
 16.810     0.02750
 16.820     0.02725
 16.830     0.02749
 16.840     0.02697
 16.850     0.02637
 16.860     0.02691
 16.870     0.02658
 16.880     0.02606
 16.890     0.02445
 16.900     0.02503
 16.910     0.02461
 16.920     0.02458
 16.930     0.02462
 16.940     0.02466
 16.950     0.02444
 16.960     0.02351
 16.970     0.02321
 16.980     0.02321
 16.990     0.02401
 17.000     0.02362
 17.010     0.02388
 17.020     0.02467
 17.030     0.02471
 17.040     0.02380
 17.050     0.02387
 17.060     0.02414
 17.070     0.02471
 17.080     0.02477
 17.090     0.02535
 17.100     0.02485
 17.110     0.02445
 17.120     0.02418
 17.130     0.02473
 17.140     0.02467
 17.150     0.02467
 17.160     0.02504
 17.170     0.02566
 17.180     0.02624
 17.190     0.02600
 17.200     0.02605
 17.210     0.02598
 17.220     0.02627
 17.230     0.02755
 17.240     0.02797
 17.250     0.02753
 17.260     0.02859
 17.270     0.02823
 17.280     0.02946
 17.290     0.02947
 17.300     0.03109
 17.310     0.02970
 17.320     0.03116
 17.330     0.03198
 17.340     0.03265
 17.350     0.03137
 17.360     0.03173
 17.370     0.03346
 17.380     0.03420
 17.390     0.03462
 17.400     0.03479
 17.410     0.03538
 17.420     0.03533
 17.430     0.03561
 17.440     0.03618
 17.450     0.03762
 17.460     0.03771
 17.470     0.03908
 17.480     0.03952
 17.490     0.04001
 17.500     0.04005
 17.510     0.03984
 17.520     0.04222
 17.530     0.04147
 17.540     0.04238
 17.550     0.04301
 17.560     0.04387
 17.570     0.04429
 17.580     0.04396
 17.590     0.04386
 17.600     0.04457
 17.610     0.04518
 17.620     0.04469
 17.630     0.04533
 17.640     0.04412
 17.650     0.04587
 17.660     0.04478
 17.670     0.04531
 17.680     0.04535
 17.690     0.04503
 17.700     0.04356
 17.710     0.04575
 17.720     0.04655
 17.730     0.04442
 17.740     0.04666
 17.750     0.04362
 17.760     0.04510
 17.770     0.04605
 17.780     0.04532
 17.790     0.04414
 17.800     0.04152
 17.810     0.04489
 17.820     0.04441
 17.830     0.04337
 17.840     0.04265
 17.850     0.04163
 17.860     0.04260
 17.870     0.04405
 17.880     0.04272
 17.890     0.04255
 17.900     0.04265
 17.910     0.04325
 17.920     0.04248
 17.930     0.04308
 17.940     0.04199
 17.950     0.04304
 17.960     0.04246
 17.970     0.04189
 17.980     0.04174
 17.990     0.04148
 18.000     0.04091
 18.010     0.04121
 18.020     0.04243
 18.030     0.04169
 18.040     0.03991
 18.050     0.04055
 18.060     0.04019
 18.070     0.04125
 18.080     0.04051
 18.090     0.03964
 18.100     0.04131
 18.110     0.03871
 18.120     0.03889
 18.130     0.03817
 18.140     0.03950
 18.150     0.03836
 18.160     0.03954
 18.170     0.03900
 18.180     0.03749
 18.190     0.03656
 18.200     0.03604
 18.210     0.03670
 18.220     0.03566
 18.230     0.03743
 18.240     0.03531
 18.250     0.03513
 18.260     0.03326
 18.270     0.03502
 18.280     0.03452
 18.290     0.03326
 18.300     0.03328
 18.310     0.03337
 18.320     0.03353
 18.330     0.03418
 18.340     0.03384
 18.350     0.03175
 18.360     0.03204
 18.370     0.03344
 18.380     0.03267
 18.390     0.03387
 18.400     0.03245
 18.410     0.03265
 18.420     0.03358
 18.430     0.03219
 18.440     0.03331
 18.450     0.03256
 18.460     0.03351
 18.470     0.03425
 18.480     0.03444
 18.490     0.03341
 18.500     0.03361
 18.510     0.03449
 18.520     0.03318
 18.530     0.03407
 18.540     0.03473
 18.550     0.03406
 18.560     0.03421
 18.570     0.03379
 18.580     0.03456
 18.590     0.03505
 18.600     0.03553
 18.610     0.03438
 18.620     0.03578
 18.630     0.03514
 18.640     0.03536
 18.650     0.03626
 18.660     0.03646
 18.670     0.03535
 18.680     0.03405
 18.690     0.03542
 18.700     0.03568
 18.710     0.03584
 18.720     0.03614
 18.730     0.03595
 18.740     0.03671
 18.750     0.03613
 18.760     0.03536
 18.770     0.03527
 18.780     0.03632
 18.790     0.03607
 18.800     0.03613
 18.810     0.03578
 18.820     0.03680
 18.830     0.03740
 18.840     0.03771
 18.850     0.03584
 18.860     0.03604
 18.870     0.03635
 18.880     0.03672
 18.890     0.03593
 18.900     0.03665
 18.910     0.03658
 18.920     0.03560
 18.930     0.03597
 18.940     0.03654
 18.950     0.03561
 18.960     0.03479
 18.970     0.03505
 18.980     0.03551
 18.990     0.03572
 19.000     0.03419
 19.010     0.03366
 19.020     0.03483
 19.030     0.03419
 19.040     0.03229
 19.050     0.03180
 19.060     0.03137
 19.070     0.03237
 19.080     0.03133
 19.090     0.03222
 19.100     0.03130
 19.110     0.03152
 19.120     0.03141
 19.130     0.03010
 19.140     0.03160
 19.150     0.03062
 19.160     0.03152
 19.170     0.02979
 19.180     0.03136
 19.190     0.03028
 19.200     0.03195
 19.210     0.03144
 19.220     0.03088
 19.230     0.03094
 19.240     0.03092
 19.250     0.03057
 19.260     0.03094
 19.270     0.03098
 19.280     0.03260
 19.290     0.03146
 19.300     0.03094
 19.310     0.03263
 19.320     0.03270
 19.330     0.03242
 19.340     0.03179
 19.350     0.03249
 19.360     0.03374
 19.370     0.03389
 19.380     0.03249
 19.390     0.03255
 19.400     0.03263
 19.410     0.03440
 19.420     0.03446
 19.430     0.03359
 19.440     0.03477
 19.450     0.03344
 19.460     0.03452
 19.470     0.03475
 19.480     0.03393
 19.490     0.03472
 19.500     0.03449
 19.510     0.03583
 19.520     0.03629
 19.530     0.03467
 19.540     0.03534
 19.550     0.03463
 19.560     0.03537
 19.570     0.03597
 19.580     0.03503
 19.590     0.03498
 19.600     0.03512
 19.610     0.03594
 19.620     0.03619
 19.630     0.03626
 19.640     0.03475
 19.650     0.03569
 19.660     0.03610
 19.670     0.03526
 19.680     0.03540
 19.690     0.03694
 19.700     0.03546
 19.710     0.03654
 19.720     0.03600
 19.730     0.03622
 19.740     0.03716
 19.750     0.03672
 19.760     0.03665
 19.770     0.03769
 19.780     0.03626
 19.790     0.03778
 19.800     0.03721
 19.810     0.03580
 19.820     0.03731
 19.830     0.03813
 19.840     0.03736
 19.850     0.03813
 19.860     0.03775
 19.870     0.03767
 19.880     0.03813
 19.890     0.03779
 19.900     0.03727
 19.910     0.03731
 19.920     0.03846
 19.930     0.03751
 19.940     0.03829
 19.950     0.03785
 19.960     0.03842
 19.970     0.03714
 19.980     0.03781
 19.990     0.03826
 20.000     0.03904
 20.010     0.03877
 20.020     0.03820
 20.030     0.03837
 20.040     0.03846
 20.050     0.03781
 20.060     0.03934
 20.070     0.03936
 20.080     0.03733
 20.090     0.03846
 20.100     0.03753
 20.110     0.03788
 20.120     0.03742
 20.130     0.03668
 20.140     0.03744
 20.150     0.03771
 20.160     0.03667
 20.170     0.03735
 20.180     0.03680
 20.190     0.03605
 20.200     0.03586
 20.210     0.03659
 20.220     0.03675
 20.230     0.03656
 20.240     0.03606
 20.250     0.03675
 20.260     0.03603
 20.270     0.03508
 20.280     0.03525
 20.290     0.03653
 20.300     0.03508
 20.310     0.03563
 20.320     0.03558
 20.330     0.03482
 20.340     0.03593
 20.350     0.03567
 20.360     0.03642
 20.370     0.03588
 20.380     0.03587
 20.390     0.03606
 20.400     0.03640
 20.410     0.03593
 20.420     0.03678
 20.430     0.03600
 20.440     0.03706
 20.450     0.03611
 20.460     0.03636
 20.470     0.03562
 20.480     0.03624
 20.490     0.03615
 20.500     0.03710
 20.510     0.03619
 20.520     0.03696
 20.530     0.03751
 20.540     0.03670
 20.550     0.03735
 20.560     0.03593
 20.570     0.03690
 20.580     0.03796
 20.590     0.03702
 20.600     0.03585
 20.610     0.03670
 20.620     0.03708
 20.630     0.03709
 20.640     0.03553
 20.650     0.03734
 20.660     0.03688
 20.670     0.03564
 20.680     0.03738
 20.690     0.03603
 20.700     0.03752
 20.710     0.03665
 20.720     0.03563
 20.730     0.03598
 20.740     0.03776
 20.750     0.03707
 20.760     0.03594
 20.770     0.03707
 20.780     0.03753
 20.790     0.03624
 20.800     0.03559
 20.810     0.03679
 20.820     0.03572
 20.830     0.03560
 20.840     0.03622
 20.850     0.03545
 20.860     0.03592
 20.870     0.03615
 20.880     0.03513
 20.890     0.03559
 20.900     0.03588
 20.910     0.03680
 20.920     0.03628
 20.930     0.03543
 20.940     0.03591
 20.950     0.03568
 20.960     0.03550
 20.970     0.03663
 20.980     0.03468
 20.990     0.03563
 21.000     0.03542
 21.010     0.03435
 21.020     0.03564
 21.030     0.03683
 21.040     0.03568
 21.050     0.03513
 21.060     0.03557
 21.070     0.03468
 21.080     0.03431
 21.090     0.03441
 21.100     0.03435
 21.110     0.03470
 21.120     0.03429
 21.130     0.03477
 21.140     0.03536
 21.150     0.03451
 21.160     0.03501
 21.170     0.03460
 21.180     0.03536
 21.190     0.03580
 21.200     0.03498
 21.210     0.03472
 21.220     0.03501
 21.230     0.03399
 21.240     0.03369
 21.250     0.03369
 21.260     0.03389
 21.270     0.03384
 21.280     0.03386
 21.290     0.03474
 21.300     0.03405
 21.310     0.03390
 21.320     0.03278
 21.330     0.03406
 21.340     0.03317
 21.350     0.03387
 21.360     0.03275
 21.370     0.03258
 21.380     0.03234
 21.390     0.03360
 21.400     0.03232
 21.410     0.03252
 21.420     0.03286
 21.430     0.03254
 21.440     0.03210
 21.450     0.03261
 21.460     0.03243
 21.470     0.03106
 21.480     0.03071
 21.490     0.03188
 21.500     0.03095
 21.510     0.03037
 21.520     0.03025
 21.530     0.03066
 21.540     0.03108
 21.550     0.02963
 21.560     0.02933
 21.570     0.02962
 21.580     0.02889
 21.590     0.02908
 21.600     0.02952
 21.610     0.02900
 21.620     0.02798
 21.630     0.02862
 21.640     0.02817
 21.650     0.02817
 21.660     0.02838
 21.670     0.02892
 21.680     0.02808
 21.690     0.02893
 21.700     0.02879
 21.710     0.02883
 21.720     0.02891
 21.730     0.02925
 21.740     0.02897
 21.750     0.02912
 21.760     0.03011
 21.770     0.02961
 21.780     0.02973
 21.790     0.03109
 21.800     0.03064
 21.810     0.03152
 21.820     0.03189
 21.830     0.03120
 21.840     0.03317
 21.850     0.03370
 21.860     0.03323
 21.870     0.03329
 21.880     0.03288
 21.890     0.03487
 21.900     0.03531
 21.910     0.03480
 21.920     0.03596
 21.930     0.03549
 21.940     0.03639
 21.950     0.03672
 21.960     0.03654
 21.970     0.03823
 21.980     0.03669
 21.990     0.03781
 22.000     0.03874
 22.010     0.03882
 22.020     0.03916
 22.030     0.03936
 22.040     0.03957
 22.050     0.04045
 22.060     0.04056
 22.070     0.04104
 22.080     0.04071
 22.090     0.04015
 22.100     0.04022
 22.110     0.04031
 22.120     0.04046
 22.130     0.03981
 22.140     0.03967
 22.150     0.04129
 22.160     0.03980
 22.170     0.03975
 22.180     0.03999
 22.190     0.03965
 22.200     0.03901
 22.210     0.03975
 22.220     0.03938
 22.230     0.03984
 22.240     0.03960
 22.250     0.03890
 22.260     0.03799
 22.270     0.03804
 22.280     0.03772
 22.290     0.03788
 22.300     0.03727
 22.310     0.03820
 22.320     0.03693
 22.330     0.03738
 22.340     0.03642
 22.350     0.03673
 22.360     0.03612
 22.370     0.03544
 22.380     0.03480
 22.390     0.03466
 22.400     0.03534
 22.410     0.03574
 22.420     0.03436
 22.430     0.03351
 22.440     0.03212
 22.450     0.03384
 22.460     0.03300
 22.470     0.03262
 22.480     0.03256
 22.490     0.03305
 22.500     0.03187
 22.510     0.03106
 22.520     0.03206
 22.530     0.03141
 22.540     0.03130
 22.550     0.03058
 22.560     0.03044
 22.570     0.02964
 22.580     0.03069
 22.590     0.03072
 22.600     0.03053
 22.610     0.02939
 22.620     0.02943
 22.630     0.02883
 22.640     0.02910
 22.650     0.02919
 22.660     0.02858
 22.670     0.02928
 22.680     0.02952
 22.690     0.02835
 22.700     0.02986
 22.710     0.02917
 22.720     0.02910
 22.730     0.02936
 22.740     0.02975
 22.750     0.03052
 22.760     0.02955
 22.770     0.03001
 22.780     0.03005
 22.790     0.03044
 22.800     0.03070
 22.810     0.03002
 22.820     0.03112
 22.830     0.03153
 22.840     0.03106
 22.850     0.03286
 22.860     0.03322
 22.870     0.03199
 22.880     0.03336
 22.890     0.03340
 22.900     0.03417
 22.910     0.03523
 22.920     0.03542
 22.930     0.03509
 22.940     0.03539
 22.950     0.03531
 22.960     0.03575
 22.970     0.03607
 22.980     0.03716
 22.990     0.03828
 23.000     0.03772
 23.010     0.03780
 23.020     0.03804
 23.030     0.03825
 23.040     0.03840
 23.050     0.03755
 23.060     0.03817
 23.070     0.03899
 23.080     0.03829
 23.090     0.03931
 23.100     0.03874
 23.110     0.03951
 23.120     0.03879
 23.130     0.03903
 23.140     0.04047
 23.150     0.03927
 23.160     0.03908
 23.170     0.03842
 23.180     0.03893
 23.190     0.03906
 23.200     0.03702
 23.210     0.03896
 23.220     0.03812
 23.230     0.03973
 23.240     0.03858
 23.250     0.03892
 23.260     0.03917
 23.270     0.03818
 23.280     0.03868
 23.290     0.03821
 23.300     0.03855
 23.310     0.03824
 23.320     0.03720
 23.330     0.03737
 23.340     0.03683
 23.350     0.03774
 23.360     0.03695
 23.370     0.03621
 23.380     0.03784
 23.390     0.03754
 23.400     0.03666
 23.410     0.03610
 23.420     0.03538
 23.430     0.03538
 23.440     0.03461
 23.450     0.03484
 23.460     0.03386
 23.470     0.03475
 23.480     0.03381
 23.490     0.03415
 23.500     0.03422
 23.510     0.03377
 23.520     0.03236
 23.530     0.03296
 23.540     0.03229
 23.550     0.03294
 23.560     0.03290
 23.570     0.03190
 23.580     0.03148
 23.590     0.03133
 23.600     0.03175
 23.610     0.03040
 23.620     0.02986
 23.630     0.02996
 23.640     0.03003
 23.650     0.02987
 23.660     0.03005
 23.670     0.02930
 23.680     0.02963
 23.690     0.02852
 23.700     0.02929
 23.710     0.02859
 23.720     0.02841
 23.730     0.02778
 23.740     0.02738
 23.750     0.02774
 23.760     0.02754
 23.770     0.02811
 23.780     0.02688
 23.790     0.02705
 23.800     0.02772
 23.810     0.02638
 23.820     0.02678
 23.830     0.02635
 23.840     0.02621
 23.850     0.02652
 23.860     0.02575
 23.870     0.02639
 23.880     0.02681
 23.890     0.02621
 23.900     0.02703
 23.910     0.02583
 23.920     0.02596
 23.930     0.02549
 23.940     0.02578
 23.950     0.02548
 23.960     0.02663
 23.970     0.02599
 23.980     0.02613
 23.990     0.02691
 24.000     0.02636
 24.010     0.02651
 24.020     0.02692
 24.030     0.02741
 24.040     0.02641
 24.050     0.02748
 24.060     0.02645
 24.070     0.02752
 24.080     0.02780
 24.090     0.02755
 24.100     0.02736
 24.110     0.02815
 24.120     0.02908
 24.130     0.02856
 24.140     0.02842
 24.150     0.02850
 24.160     0.02939
 24.170     0.02928
 24.180     0.02929
 24.190     0.02910
 24.200     0.02959
 24.210     0.03125
 24.220     0.02901
 24.230     0.03161
 24.240     0.03124
 24.250     0.03130
 24.260     0.03236
 24.270     0.03199
 24.280     0.03179
 24.290     0.03211
 24.300     0.03317
 24.310     0.03336
 24.320     0.03318
 24.330     0.03272
 24.340     0.03361
 24.350     0.03317
 24.360     0.03466
 24.370     0.03377
 24.380     0.03439
 24.390     0.03545
 24.400     0.03638
 24.410     0.03481
 24.420     0.03456
 24.430     0.03428
 24.440     0.03505
 24.450     0.03565
 24.460     0.03575
 24.470     0.03589
 24.480     0.03585
 24.490     0.03721
 24.500     0.03647
 24.510     0.03608
 24.520     0.03701
 24.530     0.03679
 24.540     0.03738
 24.550     0.03617
 24.560     0.03676
 24.570     0.03739
 24.580     0.03538
 24.590     0.03731
 24.600     0.03740
 24.610     0.03663
 24.620     0.03531
 24.630     0.03609
 24.640     0.03600
 24.650     0.03710
 24.660     0.03669
 24.670     0.03663
 24.680     0.03562
 24.690     0.03622
 24.700     0.03700
 24.710     0.03629
 24.720     0.03594
 24.730     0.03487
 24.740     0.03575
 24.750     0.03592
 24.760     0.03603
 24.770     0.03542
 24.780     0.03527
 24.790     0.03388
 24.800     0.03512
 24.810     0.03435
 24.820     0.03475
 24.830     0.03553
 24.840     0.03403
 24.850     0.03434
 24.860     0.03431
 24.870     0.03371
 24.880     0.03450
 24.890     0.03404
 24.900     0.03337
 24.910     0.03252
 24.920     0.03395
 24.930     0.03348
 24.940     0.03388
 24.950     0.03331
 24.960     0.03348
 24.970     0.03195
 24.980     0.03246
 24.990     0.03203
 25.000     0.03191
 25.010     0.03282
 25.020     0.03224
 25.030     0.03192
 25.040     0.03197
 25.050     0.03257
 25.060     0.03293
 25.070     0.03178
 25.080     0.03158
 25.090     0.03084
 25.100     0.03173
 25.110     0.03111
 25.120     0.03150
 25.130     0.03153
 25.140     0.03096
 25.150     0.03075
 25.160     0.03041
 25.170     0.03108
 25.180     0.03086
 25.190     0.03089
 25.200     0.03121
 25.210     0.02970
 25.220     0.03033
 25.230     0.03066
 25.240     0.03136
 25.250     0.03071
 25.260     0.03025
 25.270     0.03022
 25.280     0.03052
 25.290     0.03092
 25.300     0.03125
 25.310     0.03086
 25.320     0.03070
 25.330     0.03136
 25.340     0.03101
 25.350     0.03042
 25.360     0.03065
 25.370     0.03006
 25.380     0.03086
 25.390     0.03145
 25.400     0.03059
 25.410     0.03016
 25.420     0.03124
 25.430     0.03103
 25.440     0.03115
 25.450     0.03130
 25.460     0.03028
 25.470     0.03070
 25.480     0.03130
 25.490     0.03164
 25.500     0.03066
 25.510     0.03261
 25.520     0.03146
 25.530     0.03167
 25.540     0.03231
 25.550     0.03183
 25.560     0.03113
 25.570     0.03172
 25.580     0.03252
 25.590     0.03064
 25.600     0.03250
 25.610     0.03150
 25.620     0.03282
 25.630     0.03290
 25.640     0.03176
 25.650     0.03126
 25.660     0.03273
 25.670     0.03252
 25.680     0.03233
 25.690     0.03206
 25.700     0.03219
 25.710     0.03253
 25.720     0.03229
 25.730     0.03222
 25.740     0.03251
 25.750     0.03205
 25.760     0.03155
 25.770     0.03273
 25.780     0.03212
 25.790     0.03306
 25.800     0.03165
 25.810     0.03259
 25.820     0.03125
 25.830     0.03112
 25.840     0.03017
 25.850     0.03105
 25.860     0.03095
 25.870     0.03086
 25.880     0.02975
 25.890     0.02982
 25.900     0.02879
 25.910     0.02969
 25.920     0.02953
 25.930     0.03028
 25.940     0.02882
 25.950     0.02811
 25.960     0.02846
 25.970     0.02809
 25.980     0.02756
 25.990     0.02799
 26.000     0.02737
 26.010     0.02657
 26.020     0.02656
 26.030     0.02688
 26.040     0.02668
 26.050     0.02581
 26.060     0.02574
 26.070     0.02516
 26.080     0.02520
 26.090     0.02479
 26.100     0.02553
 26.110     0.02383
 26.120     0.02527
 26.130     0.02542
 26.140     0.02399
 26.150     0.02411
 26.160     0.02363
 26.170     0.02491
 26.180     0.02339
 26.190     0.02357
 26.200     0.02499
 26.210     0.02331
 26.220     0.02411
 26.230     0.02338
 26.240     0.02426
 26.250     0.02352
 26.260     0.02379
 26.270     0.02365
 26.280     0.02367
 26.290     0.02499
 26.300     0.02537
 26.310     0.02527
 26.320     0.02563
 26.330     0.02463
 26.340     0.02545
 26.350     0.02500
 26.360     0.02547
 26.370     0.02545
 26.380     0.02700
 26.390     0.02647
 26.400     0.02726
 26.410     0.02740
 26.420     0.02762
 26.430     0.02746
 26.440     0.02750
 26.450     0.02808
 26.460     0.02787
 26.470     0.02871
 26.480     0.03001
 26.490     0.02926
 26.500     0.03026
 26.510     0.02956
 26.520     0.02957
 26.530     0.03025
 26.540     0.03109
 26.550     0.03114
 26.560     0.03045
 26.570     0.03118
 26.580     0.03175
 26.590     0.03048
 26.600     0.03098
 26.610     0.03286
 26.620     0.03261
 26.630     0.03223
 26.640     0.03295
 26.650     0.03221
 26.660     0.03220
 26.670     0.03203
 26.680     0.03305
 26.690     0.03215
 26.700     0.03316
 26.710     0.03257
 26.720     0.03197
 26.730     0.03256
 26.740     0.03284
 26.750     0.03293
 26.760     0.03293
 26.770     0.03199
 26.780     0.03249
 26.790     0.03203
 26.800     0.03184
 26.810     0.03109
 26.820     0.03182
 26.830     0.03210
 26.840     0.03194
 26.850     0.03243
 26.860     0.03191
 26.870     0.03094
 26.880     0.03139
 26.890     0.03119
 26.900     0.03140
 26.910     0.03243
 26.920     0.03283
 26.930     0.03203
 26.940     0.03175
 26.950     0.03249
 26.960     0.03215
 26.970     0.03096
 26.980     0.03193
 26.990     0.03207
 27.000     0.03199
 27.010     0.03109
 27.020     0.03114
 27.030     0.03143
 27.040     0.03235
 27.050     0.03183
 27.060     0.03132
 27.070     0.03105
 27.080     0.03048
 27.090     0.03261
 27.100     0.03214
 27.110     0.03212
 27.120     0.03235
 27.130     0.03154
 27.140     0.03137
 27.150     0.03214
 27.160     0.03189
 27.170     0.03199
 27.180     0.03252
 27.190     0.03204
 27.200     0.03234
 27.210     0.03133
 27.220     0.03273
 27.230     0.03155
 27.240     0.03070
 27.250     0.03195
 27.260     0.03128
 27.270     0.03115
 27.280     0.03127
 27.290     0.03170
 27.300     0.03141
 27.310     0.03199
 27.320     0.03114
 27.330     0.03130
 27.340     0.03060
 27.350     0.03032
 27.360     0.03049
 27.370     0.03000
 27.380     0.03097
 27.390     0.03056
 27.400     0.03089
 27.410     0.03054
 27.420     0.03113
 27.430     0.03047
 27.440     0.03032
 27.450     0.03004
 27.460     0.03003
 27.470     0.02948
 27.480     0.02989
 27.490     0.03034
 27.500     0.02920
 27.510     0.02896
 27.520     0.02970
 27.530     0.02859
 27.540     0.02851
 27.550     0.02870
 27.560     0.02894
 27.570     0.02881
 27.580     0.02747
 27.590     0.02878
 27.600     0.02900
 27.610     0.02776
 27.620     0.02874
 27.630     0.02723
 27.640     0.02841
 27.650     0.02770
 27.660     0.02736
 27.670     0.02684
 27.680     0.02657
 27.690     0.02792
 27.700     0.02746
 27.710     0.02667
 27.720     0.02632
 27.730     0.02697
 27.740     0.02724
 27.750     0.02663
 27.760     0.02601
 27.770     0.02623
 27.780     0.02689
 27.790     0.02624
 27.800     0.02661
 27.810     0.02671
 27.820     0.02629
 27.830     0.02582
 27.840     0.02580
 27.850     0.02555
 27.860     0.02547
 27.870     0.02534
 27.880     0.02480
 27.890     0.02582
 27.900     0.02578
 27.910     0.02553
 27.920     0.02512
 27.930     0.02447
 27.940     0.02529
 27.950     0.02531
 27.960     0.02536
 27.970     0.02471
 27.980     0.02435
 27.990     0.02477
 28.000     0.02409
 28.010     0.02517
 28.020     0.02461
 28.030     0.02451
 28.040     0.02482
 28.050     0.02366
 28.060     0.02492
 28.070     0.02435
 28.080     0.02493
 28.090     0.02463
 28.100     0.02428
 28.110     0.02391
 28.120     0.02418
 28.130     0.02432
 28.140     0.02396
 28.150     0.02511
 28.160     0.02535
 28.170     0.02373
 28.180     0.02384
 28.190     0.02509
 28.200     0.02416
 28.210     0.02477
 28.220     0.02381
 28.230     0.02417
 28.240     0.02428
 28.250     0.02492
 28.260     0.02441
 28.270     0.02457
 28.280     0.02435
 28.290     0.02500
 28.300     0.02442
 28.310     0.02432
 28.320     0.02382
 28.330     0.02380
 28.340     0.02425
 28.350     0.02392
 28.360     0.02438
 28.370     0.02509
 28.380     0.02419
 28.390     0.02475
 28.400     0.02394
 28.410     0.02409
 28.420     0.02464
 28.430     0.02343
 28.440     0.02452
 28.450     0.02407
 28.460     0.02432
 28.470     0.02560
 28.480     0.02402
 28.490     0.02409
 28.500     0.02425
 28.510     0.02432
 28.520     0.02413
 28.530     0.02573
 28.540     0.02457
 28.550     0.02436
 28.560     0.02459
 28.570     0.02512
 28.580     0.02542
 28.590     0.02516
 28.600     0.02488
 28.610     0.02543
 28.620     0.02566
 28.630     0.02465
 28.640     0.02592
 28.650     0.02627
 28.660     0.02559
 28.670     0.02516
 28.680     0.02559
 28.690     0.02626
 28.700     0.02642
 28.710     0.02703
 28.720     0.02685
 28.730     0.02704
 28.740     0.02678
 28.750     0.02743
 28.760     0.02673
 28.770     0.02757
 28.780     0.02830
 28.790     0.02818
 28.800     0.02790
 28.810     0.02814
 28.820     0.02898
 28.830     0.02915
 28.840     0.02897
 28.850     0.02919
 28.860     0.03003
 28.870     0.02932
 28.880     0.03040
 28.890     0.03018
 28.900     0.02982
 28.910     0.03093
 28.920     0.03095
 28.930     0.03056
 28.940     0.03174
 28.950     0.03103
 28.960     0.03066
 28.970     0.03187
 28.980     0.03172
 28.990     0.03158
 29.000     0.03075
 29.010     0.03129
 29.020     0.03071
 29.030     0.03159
 29.040     0.03134
 29.050     0.03201
 29.060     0.03148
 29.070     0.03096
 29.080     0.03066
 29.090     0.03061
 29.100     0.03021
 29.110     0.03026
 29.120     0.03061
 29.130     0.03003
 29.140     0.03018
 29.150     0.02930
 29.160     0.03050
 29.170     0.03066
 29.180     0.02911
 29.190     0.02915
 29.200     0.02919
 29.210     0.02835
 29.220     0.02821
 29.230     0.02863
 29.240     0.02728
 29.250     0.02775
 29.260     0.02731
 29.270     0.02759
 29.280     0.02729
 29.290     0.02790
 29.300     0.02659
 29.310     0.02644
 29.320     0.02575
 29.330     0.02611
 29.340     0.02621
 29.350     0.02523
 29.360     0.02496
 29.370     0.02519
 29.380     0.02483
 29.390     0.02560
 29.400     0.02518
 29.410     0.02522
 29.420     0.02465
 29.430     0.02546
 29.440     0.02503
 29.450     0.02425
 29.460     0.02482
 29.470     0.02439
 29.480     0.02399
 29.490     0.02395
 29.500     0.02387
 29.510     0.02335
 29.520     0.02374
 29.530     0.02401
 29.540     0.02429
 29.550     0.02444
 29.560     0.02396
 29.570     0.02346
 29.580     0.02332
 29.590     0.02340
 29.600     0.02374
 29.610     0.02417
 29.620     0.02376
 29.630     0.02412
 29.640     0.02329
 29.650     0.02405
 29.660     0.02397
 29.670     0.02360
 29.680     0.02344
 29.690     0.02340
 29.700     0.02493
 29.710     0.02404
 29.720     0.02453
 29.730     0.02425
 29.740     0.02386
 29.750     0.02436
 29.760     0.02396
 29.770     0.02395
 29.780     0.02410
 29.790     0.02451
 29.800     0.02532
 29.810     0.02396
 29.820     0.02472
 29.830     0.02498
 29.840     0.02463
 29.850     0.02465
 29.860     0.02535
 29.870     0.02507
 29.880     0.02458
 29.890     0.02504
 29.900     0.02543
 29.910     0.02497
 29.920     0.02427
 29.930     0.02438
 29.940     0.02467
 29.950     0.02467
 29.960     0.02436
 29.970     0.02504
 29.980     0.02457
 29.990     0.02428
 30.000     0.02467
 30.010     0.02408
 30.020     0.02455
 30.030     0.02472
 30.040     0.02436
 30.050     0.02456
 30.060     0.02466
 30.070     0.02450
 30.080     0.02464
 30.090     0.02443
 30.100     0.02367
 30.110     0.02441
 30.120     0.02342
 30.130     0.02376
 30.140     0.02379
 30.150     0.02380
 30.160     0.02324
 30.170     0.02394
 30.180     0.02363
 30.190     0.02371
 30.200     0.02316
 30.210     0.02283
 30.220     0.02262
 30.230     0.02295
 30.240     0.02240
 30.250     0.02285
 30.260     0.02346
 30.270     0.02294
 30.280     0.02357
 30.290     0.02189
 30.300     0.02224
 30.310     0.02292
 30.320     0.02228
 30.330     0.02196
 30.340     0.02254
 30.350     0.02259
 30.360     0.02199
 30.370     0.02220
 30.380     0.02140
 30.390     0.02151
 30.400     0.02165
 30.410     0.02140
 30.420     0.02074
 30.430     0.02173
 30.440     0.02117
 30.450     0.02165
 30.460     0.02125
 30.470     0.02105
 30.480     0.02156
 30.490     0.02148
 30.500     0.02099
 30.510     0.02123
 30.520     0.02108
 30.530     0.02098
 30.540     0.02097
 30.550     0.02073
 30.560     0.02093
 30.570     0.02114
 30.580     0.02164
 30.590     0.02088
 30.600     0.02039
 30.610     0.02079
 30.620     0.02080
 30.630     0.02169
 30.640     0.02096
 30.650     0.02104
 30.660     0.02153
 30.670     0.02137
 30.680     0.02119
 30.690     0.02163
 30.700     0.02131
 30.710     0.02171
 30.720     0.02233
 30.730     0.02205
 30.740     0.02181
 30.750     0.02133
 30.760     0.02218
 30.770     0.02218
 30.780     0.02225
 30.790     0.02253
 30.800     0.02204
 30.810     0.02254
 30.820     0.02229
 30.830     0.02350
 30.840     0.02302
 30.850     0.02287
 30.860     0.02361
 30.870     0.02313
 30.880     0.02301
 30.890     0.02298
 30.900     0.02326
 30.910     0.02314
 30.920     0.02263
 30.930     0.02469
 30.940     0.02390
 30.950     0.02402
 30.960     0.02404
 30.970     0.02432
 30.980     0.02426
 30.990     0.02447
 31.000     0.02465
 31.010     0.02435
 31.020     0.02356
 31.030     0.02470
 31.040     0.02457
 31.050     0.02516
 31.060     0.02475
 31.070     0.02449
 31.080     0.02546
 31.090     0.02586
 31.100     0.02495
 31.110     0.02435
 31.120     0.02572
 31.130     0.02543
 31.140     0.02505
 31.150     0.02538
 31.160     0.02551
 31.170     0.02521
 31.180     0.02529
 31.190     0.02565
 31.200     0.02513
 31.210     0.02419
 31.220     0.02558
 31.230     0.02532
 31.240     0.02472
 31.250     0.02511
 31.260     0.02612
 31.270     0.02486
 31.280     0.02522
 31.290     0.02515
 31.300     0.02550
 31.310     0.02543
 31.320     0.02420
 31.330     0.02589
 31.340     0.02466
 31.350     0.02463
 31.360     0.02459
 31.370     0.02519
 31.380     0.02440
 31.390     0.02494
 31.400     0.02444
 31.410     0.02399
 31.420     0.02437
 31.430     0.02489
 31.440     0.02472
 31.450     0.02354
 31.460     0.02485
 31.470     0.02472
 31.480     0.02432
 31.490     0.02323
 31.500     0.02506
 31.510     0.02374
 31.520     0.02404
 31.530     0.02401
 31.540     0.02369
 31.550     0.02411
 31.560     0.02367
 31.570     0.02357
 31.580     0.02297
 31.590     0.02410
 31.600     0.02354
 31.610     0.02374
 31.620     0.02316
 31.630     0.02282
 31.640     0.02300
 31.650     0.02280
 31.660     0.02307
 31.670     0.02303
 31.680     0.02306
 31.690     0.02306
 31.700     0.02236
 31.710     0.02312
 31.720     0.02194
 31.730     0.02179
 31.740     0.02140
 31.750     0.02165
 31.760     0.02119
 31.770     0.02121
 31.780     0.02141
 31.790     0.02118
 31.800     0.02063
 31.810     0.02160
 31.820     0.01995
 31.830     0.02069
 31.840     0.02024
 31.850     0.01986
 31.860     0.01955
 31.870     0.01993
 31.880     0.01957
 31.890     0.01926
 31.900     0.01868
 31.910     0.01869
 31.920     0.01901
 31.930     0.01881
 31.940     0.01828
 31.950     0.01878
 31.960     0.01905
 31.970     0.01869
 31.980     0.01852
 31.990     0.01823
 32.000     0.01854
 32.010     0.01840
 32.020     0.01799
 32.030     0.01814
 32.040     0.01752
 32.050     0.01831
 32.060     0.01827
 32.070     0.01783
 32.080     0.01775
 32.090     0.01863
 32.100     0.01818
 32.110     0.01849
 32.120     0.01865
 32.130     0.01840
 32.140     0.01833
 32.150     0.01756
 32.160     0.01836
 32.170     0.01855
 32.180     0.01861
 32.190     0.01844
 32.200     0.01882
 32.210     0.01881
 32.220     0.01904
 32.230     0.01951
 32.240     0.01925
 32.250     0.01884
 32.260     0.01911
 32.270     0.01909
 32.280     0.01991
 32.290     0.01949
 32.300     0.01896
 32.310     0.02004
 32.320     0.01995
 32.330     0.01994
 32.340     0.02051
 32.350     0.01985
 32.360     0.01989
 32.370     0.02093
 32.380     0.02079
 32.390     0.02101
 32.400     0.02057
 32.410     0.01990
 32.420     0.02069
 32.430     0.02077
 32.440     0.02117
 32.450     0.02081
 32.460     0.02050
 32.470     0.02064
 32.480     0.02155
 32.490     0.02070
 32.500     0.02153
 32.510     0.02103
 32.520     0.02154
 32.530     0.02085
 32.540     0.02144
 32.550     0.02129
 32.560     0.02097
 32.570     0.02102
 32.580     0.02112
 32.590     0.02038
 32.600     0.02081
 32.610     0.02113
 32.620     0.02063
 32.630     0.02173
 32.640     0.02071
 32.650     0.02033
 32.660     0.02126
 32.670     0.01992
 32.680     0.01995
 32.690     0.02058
 32.700     0.02044
 32.710     0.02026
 32.720     0.02033
 32.730     0.02091
 32.740     0.01975
 32.750     0.02051
 32.760     0.02086
 32.770     0.02037
 32.780     0.01982
 32.790     0.01950
 32.800     0.01947
 32.810     0.02012
 32.820     0.01977
 32.830     0.01907
 32.840     0.01951
 32.850     0.01967
 32.860     0.01967
 32.870     0.01948
 32.880     0.01915
 32.890     0.01893
 32.900     0.01959
 32.910     0.01927
 32.920     0.01917
 32.930     0.01901
 32.940     0.01976
 32.950     0.01877
 32.960     0.01903
 32.970     0.01868
 32.980     0.01895
 32.990     0.01894
 33.000     0.01851
 33.010     0.01871
 33.020     0.01873
 33.030     0.01850
 33.040     0.01833
 33.050     0.01897
 33.060     0.01795
 33.070     0.01911
 33.080     0.01814
 33.090     0.01848
 33.100     0.01888
 33.110     0.01841
 33.120     0.01820
 33.130     0.01893
 33.140     0.01928
 33.150     0.01867
 33.160     0.01901
 33.170     0.01802
 33.180     0.01915
 33.190     0.01832
 33.200     0.01767
 33.210     0.01905
 33.220     0.01870
 33.230     0.01867
 33.240     0.01896
 33.250     0.01881
 33.260     0.01911
 33.270     0.01965
 33.280     0.01887
 33.290     0.01905
 33.300     0.01934
 33.310     0.01942
 33.320     0.01972
 33.330     0.01957
 33.340     0.01863
 33.350     0.01999
 33.360     0.01980
 33.370     0.01953
 33.380     0.01944
 33.390     0.01973
 33.400     0.01965
 33.410     0.02016
 33.420     0.02016
 33.430     0.01950
 33.440     0.01987
 33.450     0.01982
 33.460     0.02025
 33.470     0.01993
 33.480     0.02014
 33.490     0.01987
 33.500     0.01968
 33.510     0.01972
 33.520     0.01976
 33.530     0.01970
 33.540     0.01948
 33.550     0.01989
 33.560     0.01975
 33.570     0.01960
 33.580     0.01941
 33.590     0.01999
 33.600     0.01949
 33.610     0.01972
 33.620     0.01933
 33.630     0.01880
 33.640     0.01904
 33.650     0.01901
 33.660     0.02013
 33.670     0.01898
 33.680     0.01911
 33.690     0.01832
 33.700     0.01880
 33.710     0.01908
 33.720     0.01895
 33.730     0.01926
 33.740     0.01828
 33.750     0.01899
 33.760     0.01867
 33.770     0.01892
 33.780     0.01864
 33.790     0.01853
 33.800     0.01887
 33.810     0.01858
 33.820     0.01863
 33.830     0.01859
 33.840     0.01796
 33.850     0.01815
 33.860     0.01778
 33.870     0.01853
 33.880     0.01829
 33.890     0.01726
 33.900     0.01715
 33.910     0.01735
 33.920     0.01836
 33.930     0.01835
 33.940     0.01778
 33.950     0.01730
 33.960     0.01768
 33.970     0.01766
 33.980     0.01743
 33.990     0.01790
 34.000     0.01767
 34.010     0.01768
 34.020     0.01758
 34.030     0.01751
 34.040     0.01747
 34.050     0.01759
 34.060     0.01760
 34.070     0.01729
 34.080     0.01793
 34.090     0.01713
 34.100     0.01737
 34.110     0.01707
 34.120     0.01720
 34.130     0.01694
 34.140     0.01740
 34.150     0.01754
 34.160     0.01674
 34.170     0.01725
 34.180     0.01676
 34.190     0.01670
 34.200     0.01721
 34.210     0.01763
 34.220     0.01687
 34.230     0.01645
 34.240     0.01694
 34.250     0.01628
 34.260     0.01673
 34.270     0.01619
 34.280     0.01726
 34.290     0.01647
 34.300     0.01707
 34.310     0.01666
 34.320     0.01627
 34.330     0.01736
 34.340     0.01606
 34.350     0.01693
 34.360     0.01657
 34.370     0.01687
 34.380     0.01620
 34.390     0.01616
 34.400     0.01600
 34.410     0.01605
 34.420     0.01658
 34.430     0.01589
 34.440     0.01602
 34.450     0.01660
 34.460     0.01594
 34.470     0.01641
 34.480     0.01607
 34.490     0.01661
 34.500     0.01613
 34.510     0.01607
 34.520     0.01650
 34.530     0.01616
 34.540     0.01667
 34.550     0.01579
 34.560     0.01582
 34.570     0.01565
 34.580     0.01603
 34.590     0.01607
 34.600     0.01582
 34.610     0.01529
 34.620     0.01590
 34.630     0.01613
 34.640     0.01596
 34.650     0.01605
 34.660     0.01610
 34.670     0.01585
 34.680     0.01621
 34.690     0.01567
 34.700     0.01647
 34.710     0.01531
 34.720     0.01578
 34.730     0.01625
 34.740     0.01629
 34.750     0.01611
 34.760     0.01566
 34.770     0.01597
 34.780     0.01650
 34.790     0.01606
 34.800     0.01586
 34.810     0.01600
 34.820     0.01670
 34.830     0.01573
 34.840     0.01580
 34.850     0.01624
 34.860     0.01595
 34.870     0.01600
 34.880     0.01601
 34.890     0.01600
 34.900     0.01591
 34.910     0.01588
 34.920     0.01585
 34.930     0.01617
 34.940     0.01599
 34.950     0.01629
 34.960     0.01629
 34.970     0.01630
 34.980     0.01599
 34.990     0.01586
 35.000     0.01587
 35.010     0.01596
 35.020     0.01579
 35.030     0.01602
 35.040     0.01594
 35.050     0.01599
 35.060     0.01505
 35.070     0.01631
 35.080     0.01549
 35.090     0.01553
 35.100     0.01591
 35.110     0.01519
 35.120     0.01585
 35.130     0.01564
 35.140     0.01626
 35.150     0.01525
 35.160     0.01529
 35.170     0.01582
 35.180     0.01602
 35.190     0.01548
 35.200     0.01553
 35.210     0.01538
 35.220     0.01557
 35.230     0.01521
 35.240     0.01550
 35.250     0.01557
 35.260     0.01533
 35.270     0.01555
 35.280     0.01437
 35.290     0.01536
 35.300     0.01572
 35.310     0.01566
 35.320     0.01517
 35.330     0.01506
 35.340     0.01531
 35.350     0.01459
 35.360     0.01470
 35.370     0.01497
 35.380     0.01512
 35.390     0.01559
 35.400     0.01508
 35.410     0.01530
 35.420     0.01519
 35.430     0.01534
 35.440     0.01508
 35.450     0.01518
 35.460     0.01581
 35.470     0.01492
 35.480     0.01533
 35.490     0.01521
 35.500     0.01504
 35.510     0.01515
 35.520     0.01474
 35.530     0.01497
 35.540     0.01498
 35.550     0.01549
 35.560     0.01518
 35.570     0.01508
 35.580     0.01501
 35.590     0.01470
 35.600     0.01456
 35.610     0.01493
 35.620     0.01460
 35.630     0.01496
 35.640     0.01470
 35.650     0.01530
 35.660     0.01438
 35.670     0.01532
 35.680     0.01498
 35.690     0.01486
 35.700     0.01451
 35.710     0.01518
 35.720     0.01508
 35.730     0.01496
 35.740     0.01417
 35.750     0.01502
 35.760     0.01483
 35.770     0.01510
 35.780     0.01531
 35.790     0.01421
 35.800     0.01491
 35.810     0.01492
 35.820     0.01486
 35.830     0.01511
 35.840     0.01503
 35.850     0.01468
 35.860     0.01546
 35.870     0.01493
 35.880     0.01498
 35.890     0.01436
 35.900     0.01511
 35.910     0.01525
 35.920     0.01477
 35.930     0.01481
 35.940     0.01511
 35.950     0.01431
 35.960     0.01488
 35.970     0.01452
 35.980     0.01463
 35.990     0.01483
 36.000     0.01461
 36.010     0.01459
 36.020     0.01388
 36.030     0.01462
 36.040     0.01448
 36.050     0.01424
 36.060     0.01475
 36.070     0.01440
 36.080     0.01439
 36.090     0.01490
 36.100     0.01434
 36.110     0.01471
 36.120     0.01365
 36.130     0.01402
 36.140     0.01432
 36.150     0.01418
 36.160     0.01378
 36.170     0.01419
 36.180     0.01386
 36.190     0.01352
 36.200     0.01388
 36.210     0.01372
 36.220     0.01380
 36.230     0.01317
 36.240     0.01358
 36.250     0.01300
 36.260     0.01347
 36.270     0.01354
 36.280     0.01348
 36.290     0.01379
 36.300     0.01369
 36.310     0.01353
 36.320     0.01373
 36.330     0.01294
 36.340     0.01302
 36.350     0.01287
 36.360     0.01314
 36.370     0.01342
 36.380     0.01357
 36.390     0.01314
 36.400     0.01329
 36.410     0.01334
 36.420     0.01262
 36.430     0.01305
 36.440     0.01299
 36.450     0.01327
 36.460     0.01301
 36.470     0.01323
 36.480     0.01341
 36.490     0.01289
 36.500     0.01297
 36.510     0.01317
 36.520     0.01272
 36.530     0.01310
 36.540     0.01323
 36.550     0.01284
 36.560     0.01297
 36.570     0.01291
 36.580     0.01309
 36.590     0.01352
 36.600     0.01334
 36.610     0.01339
 36.620     0.01355
 36.630     0.01312
 36.640     0.01332
 36.650     0.01300
 36.660     0.01320
 36.670     0.01281
 36.680     0.01324
 36.690     0.01308
 36.700     0.01274
 36.710     0.01311
 36.720     0.01309
 36.730     0.01371
 36.740     0.01328
 36.750     0.01284
 36.760     0.01299
 36.770     0.01282
 36.780     0.01316
 36.790     0.01312
 36.800     0.01295
 36.810     0.01289
 36.820     0.01290
 36.830     0.01317
 36.840     0.01328
 36.850     0.01322
 36.860     0.01276
 36.870     0.01307
 36.880     0.01286
 36.890     0.01304
 36.900     0.01319
 36.910     0.01314
 36.920     0.01342
 36.930     0.01287
 36.940     0.01259
 36.950     0.01300
 36.960     0.01263
 36.970     0.01257
 36.980     0.01274
 36.990     0.01308
 37.000     0.01227
 37.010     0.01247
 37.020     0.01228
 37.030     0.01269
 37.040     0.01231
 37.050     0.01161
 37.060     0.01175
 37.070     0.01181
 37.080     0.01249
 37.090     0.01171
 37.100     0.01167
 37.110     0.01192
 37.120     0.01143
 37.130     0.01173
 37.140     0.01196
 37.150     0.01142
 37.160     0.01156
 37.170     0.01139
 37.180     0.01159
 37.190     0.01200
 37.200     0.01118
 37.210     0.01087
 37.220     0.01122
 37.230     0.01143
 37.240     0.01182
 37.250     0.01083
 37.260     0.01105
 37.270     0.01142
 37.280     0.01071
 37.290     0.01083
 37.300     0.01141
 37.310     0.01113
 37.320     0.01064
 37.330     0.01105
 37.340     0.01144
 37.350     0.01115
 37.360     0.01131
 37.370     0.01105
 37.380     0.01087
 37.390     0.01079
 37.400     0.01096
 37.410     0.01117
 37.420     0.01084
 37.430     0.01117
 37.440     0.01088
 37.450     0.01084
 37.460     0.01107
 37.470     0.01087
 37.480     0.01082
 37.490     0.01092
 37.500     0.01150
 37.510     0.01112
 37.520     0.01084
 37.530     0.01109
 37.540     0.01052
 37.550     0.01102
 37.560     0.01102
 37.570     0.01099
 37.580     0.01060
 37.590     0.01100
 37.600     0.01108
 37.610     0.01133
 37.620     0.01143
 37.630     0.01086
 37.640     0.01095
 37.650     0.01108
 37.660     0.01106
 37.670     0.01061
 37.680     0.01104
 37.690     0.01138
 37.700     0.01123
 37.710     0.01117
 37.720     0.01116
 37.730     0.01103
 37.740     0.01110
 37.750     0.01108
 37.760     0.01087
 37.770     0.01141
 37.780     0.01134
 37.790     0.01154
 37.800     0.01103
 37.810     0.01091
 37.820     0.01095
 37.830     0.01089
 37.840     0.01136
 37.850     0.01106
 37.860     0.01137
 37.870     0.01128
 37.880     0.01140
 37.890     0.01125
 37.900     0.01117
 37.910     0.01136
 37.920     0.01127
 37.930     0.01136
 37.940     0.01099
 37.950     0.01116
 37.960     0.01156
 37.970     0.01112
 37.980     0.01095
 37.990     0.01138
 38.000     0.01081
 38.010     0.01113
 38.020     0.01131
 38.030     0.01129
 38.040     0.01093
 38.050     0.01121
 38.060     0.01118
 38.070     0.01109
 38.080     0.01092
 38.090     0.01144
 38.100     0.01138
 38.110     0.01112
 38.120     0.01092
 38.130     0.01159
 38.140     0.01131
 38.150     0.01126
 38.160     0.01120
 38.170     0.01113
 38.180     0.01072
 38.190     0.01102
 38.200     0.01126
 38.210     0.01130
 38.220     0.01153
 38.230     0.01112
 38.240     0.01116
 38.250     0.01099
 38.260     0.01048
 38.270     0.01099
 38.280     0.01103
 38.290     0.01097
 38.300     0.01115
 38.310     0.01092
 38.320     0.01086
 38.330     0.01093
 38.340     0.01056
 38.350     0.01085
 38.360     0.01108
 38.370     0.01065
 38.380     0.01094
 38.390     0.01069
 38.400     0.01043
 38.410     0.01073
 38.420     0.01043
 38.430     0.01060
 38.440     0.01050
 38.450     0.01065
 38.460     0.01050
 38.470     0.01078
 38.480     0.01047
 38.490     0.01023
 38.500     0.01055
 38.510     0.01003
 38.520     0.01021
 38.530     0.01074
 38.540     0.01026
 38.550     0.01058
 38.560     0.01019
 38.570     0.01007
 38.580     0.00977
 38.590     0.00966
 38.600     0.00950
 38.610     0.01011
 38.620     0.00987
 38.630     0.00976
 38.640     0.00930
 38.650     0.01001
 38.660     0.00964
 38.670     0.00978
 38.680     0.00994
 38.690     0.00918
 38.700     0.00942
 38.710     0.00942
 38.720     0.00901
 38.730     0.00960
 38.740     0.00874
 38.750     0.00944
 38.760     0.00888
 38.770     0.00884
 38.780     0.00886
 38.790     0.00926
 38.800     0.00944
 38.810     0.00889
 38.820     0.00902
 38.830     0.00866
 38.840     0.00874
 38.850     0.00893
 38.860     0.00871
 38.870     0.00851
 38.880     0.00845
 38.890     0.00849
 38.900     0.00861
 38.910     0.00865
 38.920     0.00857
 38.930     0.00798
 38.940     0.00832
 38.950     0.00861
 38.960     0.00897
 38.970     0.00880
 38.980     0.00838
 38.990     0.00840
 39.000     0.00850
 39.010     0.00879
 39.020     0.00866
 39.030     0.00836
 39.040     0.00837
 39.050     0.00845
 39.060     0.00863
 39.070     0.00887
 39.080     0.00922
 39.090     0.00868
 39.100     0.00861
 39.110     0.00873
 39.120     0.00885
 39.130     0.00884
 39.140     0.00888
 39.150     0.00842
 39.160     0.00890
 39.170     0.00832
 39.180     0.00866
 39.190     0.00831
 39.200     0.00862
 39.210     0.00858
 39.220     0.00889
 39.230     0.00861
 39.240     0.00843
 39.250     0.00853
 39.260     0.00881
 39.270     0.00866
 39.280     0.00875
 39.290     0.00900
 39.300     0.00854
 39.310     0.00874
 39.320     0.00840
 39.330     0.00892
 39.340     0.00854
 39.350     0.00855
 39.360     0.00873
 39.370     0.00870
 39.380     0.00859
 39.390     0.00830
 39.400     0.00824
 39.410     0.00853
 39.420     0.00832
 39.430     0.00821
 39.440     0.00845
 39.450     0.00808
 39.460     0.00803
 39.470     0.00840
 39.480     0.00796
 39.490     0.00837
 39.500     0.00806
 39.510     0.00818
 39.520     0.00806
 39.530     0.00802
 39.540     0.00826
 39.550     0.00823
 39.560     0.00803
 39.570     0.00836
 39.580     0.00805
 39.590     0.00770
 39.600     0.00788
 39.610     0.00778
 39.620     0.00764
 39.630     0.00771
 39.640     0.00771
 39.650     0.00792
 39.660     0.00745
 39.670     0.00753
 39.680     0.00790
 39.690     0.00753
 39.700     0.00760
 39.710     0.00742
 39.720     0.00717
 39.730     0.00754
 39.740     0.00716
 39.750     0.00752
 39.760     0.00750
 39.770     0.00742
 39.780     0.00736
 39.790     0.00753
 39.800     0.00728
 39.810     0.00739
 39.820     0.00765
 39.830     0.00750
 39.840     0.00739
 39.850     0.00764
 39.860     0.00749
 39.870     0.00737
 39.880     0.00689
 39.890     0.00781
 39.900     0.00734
 39.910     0.00724
 39.920     0.00751
 39.930     0.00755
 39.940     0.00766
 39.950     0.00782
 39.960     0.00765
 39.970     0.00791
 39.980     0.00739
 39.990     0.00773
 40.000     0.00761
 40.010     0.00717
 40.020     0.00737
 40.030     0.00707
 40.040     0.00738
 40.050     0.00775
 40.060     0.00767
 40.070     0.00749
 40.080     0.00734
 40.090     0.00740
 40.100     0.00751
 40.110     0.00738
 40.120     0.00745
 40.130     0.00758
 40.140     0.00748
 40.150     0.00788
 40.160     0.00740
 40.170     0.00721
 40.180     0.00755
 40.190     0.00754
 40.200     0.00757
 40.210     0.00785
 40.220     0.00761
 40.230     0.00748
 40.240     0.00747
 40.250     0.00746
 40.260     0.00742
 40.270     0.00781
 40.280     0.00789
 40.290     0.00740
 40.300     0.00770
 40.310     0.00724
 40.320     0.00716
 40.330     0.00764
 40.340     0.00779
 40.350     0.00741
 40.360     0.00754
 40.370     0.00757
 40.380     0.00769
 40.390     0.00788
 40.400     0.00782
 40.410     0.00792
 40.420     0.00731
 40.430     0.00799
 40.440     0.00755
 40.450     0.00734
 40.460     0.00719
 40.470     0.00779
 40.480     0.00748
 40.490     0.00754
 40.500     0.00760
 40.510     0.00709
 40.520     0.00761
 40.530     0.00736
 40.540     0.00727
 40.550     0.00728
 40.560     0.00688
 40.570     0.00738
 40.580     0.00718
 40.590     0.00716
 40.600     0.00690
 40.610     0.00723
 40.620     0.00680
 40.630     0.00723
 40.640     0.00717
 40.650     0.00690
 40.660     0.00663
 40.670     0.00657
 40.680     0.00669
 40.690     0.00687
 40.700     0.00682
 40.710     0.00695
 40.720     0.00643
 40.730     0.00655
 40.740     0.00682
 40.750     0.00688
 40.760     0.00650
 40.770     0.00676
 40.780     0.00650
 40.790     0.00643
 40.800     0.00630
 40.810     0.00647
 40.820     0.00651
 40.830     0.00649
 40.840     0.00613
 40.850     0.00640
 40.860     0.00632
 40.870     0.00641
 40.880     0.00597
 40.890     0.00626
 40.900     0.00618
 40.910     0.00584
 40.920     0.00610
 40.930     0.00588
 40.940     0.00598
 40.950     0.00608
 40.960     0.00595
 40.970     0.00594
 40.980     0.00592
 40.990     0.00602
 41.000     0.00609
 41.010     0.00592
 41.020     0.00578
 41.030     0.00575
 41.040     0.00586
 41.050     0.00596
 41.060     0.00584
 41.070     0.00578
 41.080     0.00578
 41.090     0.00570
 41.100     0.00590
 41.110     0.00564
 41.120     0.00533
 41.130     0.00544
 41.140     0.00551
 41.150     0.00552
 41.160     0.00547
 41.170     0.00513
 41.180     0.00557
 41.190     0.00534
 41.200     0.00552
 41.210     0.00535
 41.220     0.00541
 41.230     0.00520
 41.240     0.00541
 41.250     0.00550
 41.260     0.00517
 41.270     0.00530
 41.280     0.00510
 41.290     0.00524
 41.300     0.00525
 41.310     0.00514
 41.320     0.00520
 41.330     0.00526
 41.340     0.00485
 41.350     0.00508
 41.360     0.00543
 41.370     0.00532
 41.380     0.00493
 41.390     0.00502
 41.400     0.00513
 41.410     0.00502
 41.420     0.00513
 41.430     0.00519
 41.440     0.00504
 41.450     0.00500
 41.460     0.00512
 41.470     0.00493
 41.480     0.00534
 41.490     0.00493
 41.500     0.00520
 41.510     0.00500
 41.520     0.00511
 41.530     0.00480
 41.540     0.00516
 41.550     0.00482
 41.560     0.00490
 41.570     0.00483
 41.580     0.00497
 41.590     0.00511
 41.600     0.00503
 41.610     0.00528
 41.620     0.00514
 41.630     0.00499
 41.640     0.00515
 41.650     0.00483
 41.660     0.00507
 41.670     0.00517
 41.680     0.00480
 41.690     0.00473
 41.700     0.00501
 41.710     0.00504
 41.720     0.00524
 41.730     0.00486
 41.740     0.00502
 41.750     0.00481
 41.760     0.00497
 41.770     0.00502
 41.780     0.00511
 41.790     0.00479
 41.800     0.00506
 41.810     0.00499
 41.820     0.00496
 41.830     0.00516
 41.840     0.00487
 41.850     0.00491
 41.860     0.00500
 41.870     0.00480
 41.880     0.00492
 41.890     0.00513
 41.900     0.00491
 41.910     0.00506
 41.920     0.00508
 41.930     0.00500
 41.940     0.00477
 41.950     0.00481
 41.960     0.00496
 41.970     0.00474
 41.980     0.00484
 41.990     0.00503
 42.000     0.00496
 42.010     0.00491
 42.020     0.00499
 42.030     0.00480
 42.040     0.00478
 42.050     0.00465
 42.060     0.00473
 42.070     0.00466
 42.080     0.00494
 42.090     0.00448
 42.100     0.00450
 42.110     0.00454
 42.120     0.00476
 42.130     0.00462
 42.140     0.00474
 42.150     0.00446
 42.160     0.00466
 42.170     0.00479
 42.180     0.00458
 42.190     0.00454
 42.200     0.00440
 42.210     0.00441
 42.220     0.00494
 42.230     0.00458
 42.240     0.00475
 42.250     0.00443
 42.260     0.00448
 42.270     0.00448
 42.280     0.00465
 42.290     0.00449
 42.300     0.00430
 42.310     0.00456
 42.320     0.00461
 42.330     0.00410
 42.340     0.00447
 42.350     0.00447
 42.360     0.00435
 42.370     0.00430
 42.380     0.00447
 42.390     0.00454
 42.400     0.00434
 42.410     0.00473
 42.420     0.00456
 42.430     0.00445
 42.440     0.00439
 42.450     0.00461
 42.460     0.00427
 42.470     0.00438
 42.480     0.00416
 42.490     0.00456
 42.500     0.00405
 42.510     0.00415
 42.520     0.00458
 42.530     0.00427
 42.540     0.00426
 42.550     0.00448
 42.560     0.00419
 42.570     0.00441
 42.580     0.00401
 42.590     0.00420
 42.600     0.00405
 42.610     0.00392
 42.620     0.00440
 42.630     0.00419
 42.640     0.00369
 42.650     0.00412
 42.660     0.00411
 42.670     0.00436
 42.680     0.00406
 42.690     0.00405
 42.700     0.00398
 42.710     0.00405
 42.720     0.00411
 42.730     0.00387
 42.740     0.00408
 42.750     0.00406
 42.760     0.00390
 42.770     0.00416
 42.780     0.00407
 42.790     0.00380
 42.800     0.00389
 42.810     0.00405
 42.820     0.00387
 42.830     0.00386
 42.840     0.00396
 42.850     0.00381
 42.860     0.00368
 42.870     0.00325
 42.880     0.00361
 42.890     0.00367
 42.900     0.00381
 42.910     0.00384
 42.920     0.00357
 42.930     0.00361
 42.940     0.00350
 42.950     0.00340
 42.960     0.00341
 42.970     0.00366
 42.980     0.00366
 42.990     0.00347
 43.000     0.00348
 43.010     0.00344
 43.020     0.00331
 43.030     0.00338
 43.040     0.00335
 43.050     0.00348
 43.060     0.00355
 43.070     0.00323
 43.080     0.00346
 43.090     0.00334
 43.100     0.00323
 43.110     0.00318
 43.120     0.00327
 43.130     0.00338
 43.140     0.00331
 43.150     0.00314
 43.160     0.00328
 43.170     0.00334
 43.180     0.00319
 43.190     0.00326
 43.200     0.00327
 43.210     0.00293
 43.220     0.00309
 43.230     0.00315
 43.240     0.00314
 43.250     0.00311
 43.260     0.00306
 43.270     0.00309
 43.280     0.00287
 43.290     0.00290
 43.300     0.00293
 43.310     0.00313
 43.320     0.00295
 43.330     0.00277
 43.340     0.00291
 43.350     0.00287
 43.360     0.00304
 43.370     0.00286
 43.380     0.00275
 43.390     0.00282
 43.400     0.00286
 43.410     0.00266
 43.420     0.00273
 43.430     0.00299
 43.440     0.00271
 43.450     0.00271
 43.460     0.00313
 43.470     0.00265
 43.480     0.00292
 43.490     0.00265
 43.500     0.00256
 43.510     0.00287
 43.520     0.00274
 43.530     0.00273
 43.540     0.00271
 43.550     0.00279
 43.560     0.00295
 43.570     0.00252
 43.580     0.00254
 43.590     0.00256
 43.600     0.00277
 43.610     0.00261
 43.620     0.00262
 43.630     0.00263
 43.640     0.00278
 43.650     0.00279
 43.660     0.00278
 43.670     0.00267
 43.680     0.00274
 43.690     0.00264
 43.700     0.00260
 43.710     0.00265
 43.720     0.00276
 43.730     0.00248
 43.740     0.00256
 43.750     0.00259
 43.760     0.00253
 43.770     0.00269
 43.780     0.00259
 43.790     0.00253
 43.800     0.00253
 43.810     0.00264
 43.820     0.00255
 43.830     0.00263
 43.840     0.00247
 43.850     0.00241
 43.860     0.00239
 43.870     0.00252
 43.880     0.00254
 43.890     0.00240
 43.900     0.00262
 43.910     0.00249
 43.920     0.00268
 43.930     0.00262
 43.940     0.00244
 43.950     0.00245
 43.960     0.00264
 43.970     0.00250
 43.980     0.00238
 43.990     0.00251
 44.000     0.00235
 44.010     0.00249
 44.020     0.00220
 44.030     0.00236
 44.040     0.00240
 44.050     0.00250
 44.060     0.00256
 44.070     0.00223
 44.080     0.00225
 44.090     0.00224
 44.100     0.00231
 44.110     0.00247
 44.120     0.00247
 44.130     0.00234
 44.140     0.00240
 44.150     0.00240
 44.160     0.00233
 44.170     0.00224
 44.180     0.00243
 44.190     0.00232
 44.200     0.00244
 44.210     0.00208
 44.220     0.00232
 44.230     0.00232
 44.240     0.00222
 44.250     0.00225
 44.260     0.00224
 44.270     0.00224
 44.280     0.00230
 44.290     0.00205
 44.300     0.00236
 44.310     0.00232
 44.320     0.00207
 44.330     0.00222
 44.340     0.00233
 44.350     0.00204
 44.360     0.00238
 44.370     0.00199
 44.380     0.00213
 44.390     0.00232
 44.400     0.00225
 44.410     0.00201
 44.420     0.00217
 44.430     0.00219
 44.440     0.00204
 44.450     0.00220
 44.460     0.00233
 44.470     0.00204
 44.480     0.00193
 44.490     0.00187
 44.500     0.00199
 44.510     0.00194
 44.520     0.00199
 44.530     0.00195
 44.540     0.00195
 44.550     0.00197
 44.560     0.00198
 44.570     0.00207
 44.580     0.00191
 44.590     0.00201
 44.600     0.00198
 44.610     0.00199
 44.620     0.00200
 44.630     0.00165
 44.640     0.00195
 44.650     0.00172
 44.660     0.00187
 44.670     0.00205
 44.680     0.00196
 44.690     0.00182
 44.700     0.00181
 44.710     0.00191
 44.720     0.00183
 44.730     0.00179
 44.740     0.00166
 44.750     0.00201
 44.760     0.00187
 44.770     0.00172
 44.780     0.00177
 44.790     0.00163
 44.800     0.00173
 44.810     0.00154
 44.820     0.00190
 44.830     0.00173
 44.840     0.00168
 44.850     0.00163
 44.860     0.00158
 44.870     0.00156
 44.880     0.00168
 44.890     0.00165
 44.900     0.00146
 44.910     0.00170
 44.920     0.00175
 44.930     0.00168
 44.940     0.00148
 44.950     0.00164
 44.960     0.00158
 44.970     0.00162
 44.980     0.00153
 44.990     0.00179
 45.000     0.00151
 45.010     0.00169
 45.020     0.00165
 45.030     0.00165
 45.040     0.00145
 45.050     0.00162
 45.060     0.00153
 45.070     0.00149
 45.080     0.00160
 45.090     0.00145
 45.100     0.00144
 45.110     0.00144
 45.120     0.00133
 45.130     0.00145
 45.140     0.00140
 45.150     0.00134
 45.160     0.00146
 45.170     0.00130
 45.180     0.00131
 45.190     0.00148
 45.200     0.00138
 45.210     0.00130
 45.220     0.00144
 45.230     0.00138
 45.240     0.00141
 45.250     0.00119
 45.260     0.00118
 45.270     0.00130
 45.280     0.00132
 45.290     0.00122
 45.300     0.00139
 45.310     0.00116
 45.320     0.00125
 45.330     0.00121
 45.340     0.00122
 45.350     0.00124
 45.360     0.00115
 45.370     0.00121
 45.380     0.00128
 45.390     0.00115
 45.400     0.00114
 45.410     0.00110
 45.420     0.00119
 45.430     0.00112
 45.440     0.00115
 45.450     0.00115
 45.460     0.00108
 45.470     0.00120
 45.480     0.00108
 45.490     0.00133
 45.500     0.00119
 45.510     0.00116
 45.520     0.00108
 45.530     0.00097
 45.540     0.00111
 45.550     0.00115
 45.560     0.00113
 45.570     0.00102
 45.580     0.00095
 45.590     0.00100
 45.600     0.00114
 45.610     0.00111
 45.620     0.00108
 45.630     0.00094
 45.640     0.00108
 45.650     0.00107
 45.660     0.00096
 45.670     0.00093
 45.680     0.00113
 45.690     0.00100
 45.700     0.00109
 45.710     0.00094
 45.720     0.00090
 45.730     0.00106
 45.740     0.00107
 45.750     0.00089
 45.760     0.00099
 45.770     0.00088
 45.780     0.00099
 45.790     0.00078
 45.800     0.00097
 45.810     0.00099
 45.820     0.00100
 45.830     0.00090
 45.840     0.00100
 45.850     0.00105
 45.860     0.00083
 45.870     0.00091
 45.880     0.00098
 45.890     0.00095
 45.900     0.00089
 45.910     0.00072
 45.920     0.00087
 45.930     0.00086
 45.940     0.00088
 45.950     0.00078
 45.960     0.00087
 45.970     0.00075
 45.980     0.00074
 45.990     0.00091
 46.000     0.00090
 46.010     0.00076
 46.020     0.00079
 46.030     0.00079
 46.040     0.00073
 46.050     0.00074
 46.060     0.00085
 46.070     0.00078
 46.080     0.00082
 46.090     0.00091
 46.100     0.00081
 46.110     0.00080
 46.120     0.00073
 46.130     0.00083
 46.140     0.00069
 46.150     0.00078
 46.160     0.00075
 46.170     0.00078
 46.180     0.00078
 46.190     0.00073
 46.200     0.00065
 46.210     0.00069
 46.220     0.00074
 46.230     0.00073
 46.240     0.00061
 46.250     0.00066
 46.260     0.00074
 46.270     0.00072
 46.280     0.00072
 46.290     0.00076
 46.300     0.00070
 46.310     0.00060
 46.320     0.00060
 46.330     0.00049
 46.340     0.00065
 46.350     0.00063
 46.360     0.00048
 46.370     0.00058
 46.380     0.00075
 46.390     0.00069
 46.400     0.00057
 46.410     0.00056
 46.420     0.00055
 46.430     0.00061
 46.440     0.00061
 46.450     0.00051
 46.460     0.00065
 46.470     0.00051
 46.480     0.00039
 46.490     0.00068
 46.500     0.00050
 46.510     0.00051
 46.520     0.00054
 46.530     0.00054
 46.540     0.00049
 46.550     0.00043
 46.560     0.00051
 46.570     0.00060
 46.580     0.00048
 46.590     0.00046
 46.600     0.00056
 46.610     0.00055
 46.620     0.00050
 46.630     0.00048
 46.640     0.00044
 46.650     0.00050
 46.660     0.00044
 46.670     0.00048
 46.680     0.00053
 46.690     0.00040
 46.700     0.00033
 46.710     0.00039
 46.720     0.00050
 46.730     0.00038
 46.740     0.00040
 46.750     0.00048
 46.760     0.00037
 46.770     0.00042
 46.780     0.00038
 46.790     0.00041
 46.800     0.00034
 46.810     0.00042
 46.820     0.00040
 46.830     0.00033
 46.840     0.00041
 46.850     0.00031
 46.860     0.00031
 46.870     0.00031
 46.880     0.00043
 46.890     0.00034
 46.900     0.00032
 46.910     0.00036
 46.920     0.00038
 46.930     0.00023
 46.940     0.00025
 46.950     0.00026
 46.960     0.00043
 46.970     0.00033
 46.980     0.00036
 46.990     0.00032
 47.000     0.00031
 47.010     0.00028
 47.020     0.00030
 47.030     0.00026
 47.040     0.00030
 47.050     0.00033
 47.060     0.00026
 47.070     0.00028
 47.080     0.00023
 47.090     0.00027
 47.100     0.00030
 47.110     0.00027
 47.120     0.00029
 47.130     0.00026
 47.140     0.00028
 47.150     0.00025
 47.160     0.00021
 47.170     0.00029
 47.180     0.00021
 47.190     0.00020
 47.200     0.00023
 47.210     0.00020
 47.220     0.00020
 47.230     0.00028
 47.240     0.00022
 47.250     0.00022
 47.260     0.00020
 47.270     0.00020
 47.280     0.00018
 47.290     0.00023
 47.300     0.00022
 47.310     0.00019
 47.320     0.00020
 47.330     0.00018
 47.340     0.00017
 47.350     0.00024
 47.360     0.00012
 47.370     0.00015
 47.380     0.00018
 47.390     0.00014
 47.400     0.00014
 47.410     0.00015
 47.420     0.00011
 47.430     0.00015
 47.440     0.00014
 47.450     0.00018
 47.460     0.00010
 47.470     0.00012
 47.480     0.00011
 47.490     0.00017
 47.500     0.00014
 47.510     0.00009
 47.520     0.00012
 47.530     0.00014
 47.540     0.00014
 47.550     0.00011
 47.560     0.00016
 47.570     0.00012
 47.580     0.00009
 47.590     0.00007
 47.600     0.00011
 47.610     0.00009
 47.620     0.00006
 47.630     0.00010
 47.640     0.00006
 47.650     0.00007
 47.660     0.00010
 47.670     0.00010
 47.680     0.00011
 47.690     0.00008
 47.700     0.00007
 47.710     0.00009
 47.720     0.00007
 47.730     0.00007
 47.740     0.00008
 47.750     0.00008
 47.760     0.00007
 47.770     0.00005
 47.780     0.00010
 47.790     0.00008
 47.800     0.00008
 47.810     0.00007
 47.820     0.00010
 47.830     0.00007
 47.840     0.00006
 47.850     0.00005
 47.860     0.00005
 47.870     0.00006
 47.880     0.00005
 47.890     0.00008
 47.900     0.00005
 47.910     0.00003
 47.920     0.00004
 47.930     0.00003
 47.940     0.00004
 47.950     0.00003
 47.960     0.00003
 47.970     0.00005
 47.980     0.00003
 47.990     0.00007
 48.000     0.00003
 48.010     0.00007
 48.020     0.00003
 48.030     0.00004
 48.040     0.00003
 48.050     0.00002
 48.060     0.00004
 48.070     0.00005
 48.080     0.00002
 48.090     0.00004
 48.100     0.00000
 48.110     0.00003
 48.120     0.00002
 48.130     0.00002
 48.140     0.00002
 48.150     0.00005
 48.160     0.00002
 48.170     0.00003
 48.180     0.00002
 48.190     0.00002
 48.200     0.00003
 48.210     0.00002
 48.220     0.00002
 48.230     0.00005
 48.240     0.00000
 48.250     0.00001
 48.260     0.00003
 48.270     0.00002
 48.280     0.00003
 48.290     0.00001
 48.300     0.00002
 48.310     0.00003
 48.320     0.00000
 48.330     0.00001
 48.340     0.00001
 48.350     0.00002
 48.360     0.00003
 48.370     0.00000
 48.380     0.00002
 48.390     0.00001
 48.400     0.00002
 48.410     0.00003
 48.420     0.00002
 48.430     0.00000
 48.440     0.00000
 48.450     0.00003
 48.460     0.00001
 48.470     0.00001
 48.480     0.00001
 48.490     0.00001
 48.500     0.00002
 48.510     0.00001
 48.520     0.00001
 48.530     0.00001
 48.540     0.00001
 48.550     0.00001
 48.560     0.00000
 48.570     0.00000
 48.580     0.00002
 48.590     0.00000
 48.600     0.00001
 48.610     0.00001
 48.620     0.00000
 48.630     0.00000
 48.640     0.00000
 48.650     0.00000
 48.660     0.00000
 48.670     0.00000
 48.680     0.00001
 48.690     0.00001
 48.700     0.00001
 48.710     0.00000
 48.720     0.00001
 48.730     0.00000
 48.740     0.00000
 48.750     0.00001
 48.760     0.00000
 48.770     0.00000
 48.780     0.00000
 48.790     0.00000
 48.800     0.00001
 48.810     0.00000
 48.820     0.00000
 48.830     0.00000
 48.840     0.00000
 48.850     0.00000
 48.860     0.00000
 48.870     0.00000
 48.880     0.00000
 48.890     0.00000
 48.900     0.00000
 48.910     0.00000
 48.920     0.00000
 48.930     0.00000
 48.940     0.00000
 48.950     0.00000
 48.960     0.00000
 48.970     0.00000
 48.980     0.00000
 48.990     0.00000
 49.000     0.00000
 49.010     0.00000
 49.020     0.00000
 49.030     0.00000
 49.040     0.00000
 49.050     0.00000
 49.060     0.00000
 49.070     0.00000
 49.080     0.00000
 49.090     0.00000
 49.100     0.00000
 49.110     0.00000
 49.120     0.00000
 49.130     0.00000
 49.140     0.00000
 49.150     0.00000
 49.160     0.00000
 49.170     0.00000
 49.180     0.00000
 49.190     0.00000
 49.200     0.00000
 49.210     0.00000
 49.220     0.00000
 49.230     0.00000
 49.240     0.00000
 49.250     0.00000
 49.260     0.00000
 49.270     0.00000
 49.280     0.00000
 49.290     0.00000
 49.300     0.00000
 49.310     0.00000
 49.320     0.00000
 49.330     0.00000
 49.340     0.00000
 49.350     0.00000
 49.360     0.00000
 49.370     0.00000
 49.380     0.00000
 49.390     0.00000
 49.400     0.00000
 49.410     0.00000
 49.420     0.00000
 49.430     0.00000
 49.440     0.00000
 49.450     0.00000
 49.460     0.00000
 49.470     0.00000
 49.480     0.00000
 49.490     0.00000
 49.500     0.00000
 49.510     0.00000
 49.520     0.00000
 49.530     0.00000
 49.540     0.00000
 49.550     0.00000
 49.560     0.00000
 49.570     0.00000
 49.580     0.00000
 49.590     0.00000
 49.600     0.00000
 49.610     0.00000
 49.620     0.00000
 49.630     0.00000
 49.640     0.00000
 49.650     0.00000
 49.660     0.00000
 49.670     0.00000
 49.680     0.00000
 49.690     0.00000
 49.700     0.00000
 49.710     0.00000
 49.720     0.00000
 49.730     0.00000
 49.740     0.00000
 49.750     0.00000
 49.760     0.00000
 49.770     0.00000
 49.780     0.00000
 49.790     0.00000
 49.800     0.00000
 49.810     0.00000
 49.820     0.00000
 49.830     0.00000
 49.840     0.00000
 49.850     0.00000
 49.860     0.00000
 49.870     0.00000
 49.880     0.00000
 49.890     0.00000
 49.900     0.00000
 49.910     0.00000
 49.920     0.00000
 49.930     0.00000
 49.940     0.00000
 49.950     0.00000
 49.960     0.00000
 49.970     0.00000
 49.980     0.00000
 49.990     0.00000
 50.000     0.00000
