  #r(a)       PDF
  0.010     0.00000
  0.020     0.00000
  0.030     0.00000
  0.040     0.00000
  0.050     0.00000
  0.060     0.00000
  0.070     0.00000
  0.080     0.00000
  0.090     0.00000
  0.100     0.00000
  0.110     0.00000
  0.120     0.00000
  0.130     0.00000
  0.140     0.00000
  0.150     0.00000
  0.160     0.00000
  0.170     0.00000
  0.180     0.00000
  0.190     0.00000
  0.200     0.00000
  0.210     0.00000
  0.220     0.00000
  0.230     0.00000
  0.240     0.00000
  0.250     0.00000
  0.260     0.00000
  0.270     0.00000
  0.280     0.00000
  0.290     0.00000
  0.300     0.00000
  0.310     0.00000
  0.320     0.00000
  0.330     0.00000
  0.340     0.00000
  0.350     0.00000
  0.360     0.00000
  0.370     0.00000
  0.380     0.00000
  0.390     0.00000
  0.400     0.00000
  0.410     0.00000
  0.420     0.00000
  0.430     0.00000
  0.440     0.00000
  0.450     0.00000
  0.460     0.00000
  0.470     0.00000
  0.480     0.00000
  0.490     0.00000
  0.500     0.00000
  0.510     0.00000
  0.520     0.00000
  0.530     0.00000
  0.540     0.00000
  0.550     0.00000
  0.560     0.00000
  0.570     0.00000
  0.580     0.00000
  0.590     0.00000
  0.600     0.00000
  0.610     0.00000
  0.620     0.00000
  0.630     0.00000
  0.640     0.00000
  0.650     0.00000
  0.660     0.00000
  0.670     0.00000
  0.680     0.00000
  0.690     0.00000
  0.700     0.00000
  0.710     0.00000
  0.720     0.00000
  0.730     0.00000
  0.740     0.00000
  0.750     0.00000
  0.760     0.00000
  0.770     0.00000
  0.780     0.00000
  0.790     0.00000
  0.800     0.00000
  0.810     0.00000
  0.820     0.00000
  0.830     0.00000
  0.840     0.00000
  0.850     0.00000
  0.860     0.00000
  0.870     0.00000
  0.880     0.00000
  0.890     0.00000
  0.900     0.00000
  0.910     0.00000
  0.920     0.00000
  0.930     0.00000
  0.940     0.00000
  0.950     0.00000
  0.960     0.00000
  0.970     0.00000
  0.980     0.00000
  0.990     0.00000
  1.000     0.00000
  1.010     0.00000
  1.020     0.00000
  1.030     0.00000
  1.040     0.00000
  1.050     0.00000
  1.060     0.00000
  1.070     0.00000
  1.080     0.00000
  1.090     0.00000
  1.100     0.00000
  1.110     0.00000
  1.120     0.00000
  1.130     0.00000
  1.140     0.00000
  1.150     0.00000
  1.160     0.00000
  1.170     0.00000
  1.180     0.00000
  1.190     0.00000
  1.200     0.00000
  1.210     0.00000
  1.220     0.00000
  1.230     0.00000
  1.240     0.00000
  1.250     0.00000
  1.260     0.00000
  1.270     0.00000
  1.280     0.00000
  1.290     0.00000
  1.300     0.00000
  1.310     0.00000
  1.320     0.00000
  1.330     0.00000
  1.340     0.00000
  1.350     0.00000
  1.360     0.00000
  1.370     0.00000
  1.380     0.00000
  1.390     0.00000
  1.400     0.00000
  1.410     0.00000
  1.420     0.00000
  1.430     0.00000
  1.440     0.00000
  1.450     0.00000
  1.460     0.00000
  1.470     0.00000
  1.480     0.00000
  1.490     0.00000
  1.500     0.00000
  1.510     0.00000
  1.520     0.00000
  1.530     0.00000
  1.540     0.00000
  1.550     0.00000
  1.560     0.00000
  1.570     0.00000
  1.580     0.00000
  1.590     0.00000
  1.600     0.00000
  1.610     0.00000
  1.620     0.00000
  1.630     0.00000
  1.640     0.00000
  1.650     0.00000
  1.660     0.00000
  1.670     0.00000
  1.680     0.00000
  1.690     0.00000
  1.700     0.00000
  1.710     0.00000
  1.720     0.00000
  1.730     0.00000
  1.740     0.00000
  1.750     0.00000
  1.760     0.00000
  1.770     0.00000
  1.780     0.00000
  1.790     0.00000
  1.800     0.00000
  1.810     0.00000
  1.820     0.00000
  1.830     0.00000
  1.840     0.00000
  1.850     0.00000
  1.860     0.00000
  1.870     0.00000
  1.880     0.00000
  1.890     0.00000
  1.900     0.00000
  1.910     0.00000
  1.920     0.00000
  1.930     0.00000
  1.940     0.00000
  1.950     0.00000
  1.960     0.00000
  1.970     0.00000
  1.980     0.00000
  1.990     0.00000
  2.000     0.00000
  2.010     0.00000
  2.020     0.00000
  2.030     0.00000
  2.040     0.00000
  2.050     0.00000
  2.060     0.00000
  2.070     0.00000
  2.080     0.00000
  2.090     0.00000
  2.100     0.00000
  2.110     0.00000
  2.120     0.00000
  2.130     0.00000
  2.140     0.00000
  2.150     0.00010
  2.160     0.00000
  2.170     0.00000
  2.180     0.00000
  2.190     0.00000
  2.200     0.00010
  2.210     0.00020
  2.220     0.00020
  2.230     0.00010
  2.240     0.00000
  2.250     0.00000
  2.260     0.00000
  2.270     0.00010
  2.280     0.00048
  2.290     0.00048
  2.300     0.00048
  2.310     0.00019
  2.320     0.00019
  2.330     0.00056
  2.340     0.00075
  2.350     0.00167
  2.360     0.00167
  2.370     0.00231
  2.380     0.00193
  2.390     0.00219
  2.400     0.00219
  2.410     0.00381
  2.420     0.00461
  2.430     0.00495
  2.440     0.00717
  2.450     0.00946
  2.460     0.01013
  2.470     0.01106
  2.480     0.01314
  2.490     0.01651
  2.500     0.02003
  2.510     0.02291
  2.520     0.02473
  2.530     0.02878
  2.540     0.02996
  2.550     0.03524
  2.560     0.03561
  2.570     0.03692
  2.580     0.04432
  2.590     0.04643
  2.600     0.04651
  2.610     0.05102
  2.620     0.05124
  2.630     0.05737
  2.640     0.05674
  2.650     0.05850
  2.660     0.05910
  2.670     0.05978
  2.680     0.06046
  2.690     0.06015
  2.700     0.05831
  2.710     0.05737
  2.720     0.05499
  2.730     0.05206
  2.740     0.05235
  2.750     0.04533
  2.760     0.04983
  2.770     0.04673
  2.780     0.04373
  2.790     0.04232
  2.800     0.03975
  2.810     0.03416
  2.820     0.03195
  2.830     0.02735
  2.840     0.02856
  2.850     0.02624
  2.860     0.02447
  2.870     0.02286
  2.880     0.02263
  2.890     0.01778
  2.900     0.01576
  2.910     0.01480
  2.920     0.01191
  2.930     0.01142
  2.940     0.00915
  2.950     0.00778
  2.960     0.00827
  2.970     0.00714
  2.980     0.00565
  2.990     0.00607
  3.000     0.00568
  3.010     0.00559
  3.020     0.00398
  3.030     0.00296
  3.040     0.00367
  3.050     0.00280
  3.060     0.00250
  3.070     0.00271
  3.080     0.00234
  3.090     0.00191
  3.100     0.00176
  3.110     0.00232
  3.120     0.00182
  3.130     0.00119
  3.140     0.00153
  3.150     0.00139
  3.160     0.00104
  3.170     0.00097
  3.180     0.00083
  3.190     0.00062
  3.200     0.00034
  3.210     0.00054
  3.220     0.00075
  3.230     0.00102
  3.240     0.00034
  3.250     0.00067
  3.260     0.00067
  3.270     0.00047
  3.280     0.00047
  3.290     0.00080
  3.300     0.00066
  3.310     0.00040
  3.320     0.00066
  3.330     0.00039
  3.340     0.00072
  3.350     0.00078
  3.360     0.00052
  3.370     0.00097
  3.380     0.00078
  3.390     0.00084
  3.400     0.00103
  3.410     0.00135
  3.420     0.00058
  3.430     0.00083
  3.440     0.00064
  3.450     0.00152
  3.460     0.00171
  3.470     0.00151
  3.480     0.00113
  3.490     0.00269
  3.500     0.00187
  3.510     0.00193
  3.520     0.00292
  3.530     0.00396
  3.540     0.00303
  3.550     0.00456
  3.560     0.00442
  3.570     0.00465
  3.580     0.00403
  3.590     0.00591
  3.600     0.00705
  3.610     0.00666
  3.620     0.00652
  3.630     0.00735
  3.640     0.00763
  3.650     0.00773
  3.660     0.00890
  3.670     0.01102
  3.680     0.00927
  3.690     0.01173
  3.700     0.01152
  3.710     0.01149
  3.720     0.01205
  3.730     0.01278
  3.740     0.01520
  3.750     0.01516
  3.760     0.01489
  3.770     0.01467
  3.780     0.01521
  3.790     0.01748
  3.800     0.01576
  3.810     0.01595
  3.820     0.01557
  3.830     0.01741
  3.840     0.01851
  3.850     0.01567
  3.860     0.01609
  3.870     0.01537
  3.880     0.01572
  3.890     0.01675
  3.900     0.01486
  3.910     0.01387
  3.920     0.01149
  3.930     0.01124
  3.940     0.01154
  3.950     0.01151
  3.960     0.01126
  3.970     0.01140
  3.980     0.01033
  3.990     0.00844
  4.000     0.00869
  4.010     0.00889
  4.020     0.00669
  4.030     0.00743
  4.040     0.00682
  4.050     0.00545
  4.060     0.00544
  4.070     0.00564
  4.080     0.00466
  4.090     0.00481
  4.100     0.00373
  4.110     0.00362
  4.120     0.00292
  4.130     0.00238
  4.140     0.00290
  4.150     0.00269
  4.160     0.00200
  4.170     0.00257
  4.180     0.00251
  4.190     0.00136
  4.200     0.00260
  4.210     0.00286
  4.220     0.00244
  4.230     0.00207
  4.240     0.00273
  4.250     0.00190
  4.260     0.00226
  4.270     0.00271
  4.280     0.00174
  4.290     0.00362
  4.300     0.00330
  4.310     0.00350
  4.320     0.00430
  4.330     0.00424
  4.340     0.00489
  4.350     0.00689
  4.360     0.00853
  4.370     0.00806
  4.380     0.00859
  4.390     0.00911
  4.400     0.00979
  4.410     0.01274
  4.420     0.01296
  4.430     0.01446
  4.440     0.01660
  4.450     0.01813
  4.460     0.01956
  4.470     0.02094
  4.480     0.02245
  4.490     0.02449
  4.500     0.02721
  4.510     0.02851
  4.520     0.03135
  4.530     0.03026
  4.540     0.03463
  4.550     0.03537
  4.560     0.03989
  4.570     0.04488
  4.580     0.04378
  4.590     0.04373
  4.600     0.04587
  4.610     0.04696
  4.620     0.05083
  4.630     0.05030
  4.640     0.05099
  4.650     0.05360
  4.660     0.05222
  4.670     0.05305
  4.680     0.05326
  4.690     0.05203
  4.700     0.05215
  4.710     0.05292
  4.720     0.05142
  4.730     0.04831
  4.740     0.04880
  4.750     0.04474
  4.760     0.04561
  4.770     0.04254
  4.780     0.04186
  4.790     0.03789
  4.800     0.03489
  4.810     0.03591
  4.820     0.03361
  4.830     0.03241
  4.840     0.02928
  4.850     0.02642
  4.860     0.02425
  4.870     0.02434
  4.880     0.02267
  4.890     0.01860
  4.900     0.01901
  4.910     0.01701
  4.920     0.01538
  4.930     0.01557
  4.940     0.01257
  4.950     0.01246
  4.960     0.01036
  4.970     0.01104
  4.980     0.00922
  4.990     0.00885
  5.000     0.00813
  5.010     0.00790
  5.020     0.00754
  5.030     0.00652
  5.040     0.00573
  5.050     0.00723
  5.060     0.00519
  5.070     0.00656
  5.080     0.00620
  5.090     0.00533
  5.100     0.00506
  5.110     0.00697
  5.120     0.00645
  5.130     0.00806
  5.140     0.00608
  5.150     0.00760
  5.160     0.00843
  5.170     0.00909
  5.180     0.00886
  5.190     0.00977
  5.200     0.01072
  5.210     0.01204
  5.220     0.01315
  5.230     0.01300
  5.240     0.01465
  5.250     0.01474
  5.260     0.01422
  5.270     0.01577
  5.280     0.01735
  5.290     0.01963
  5.300     0.01774
  5.310     0.01931
  5.320     0.02014
  5.330     0.02018
  5.340     0.02133
  5.350     0.02011
  5.360     0.02129
  5.370     0.02402
  5.380     0.02130
  5.390     0.02150
  5.400     0.02162
  5.410     0.02178
  5.420     0.02287
  5.430     0.02150
  5.440     0.02231
  5.450     0.02114
  5.460     0.02131
  5.470     0.02031
  5.480     0.01847
  5.490     0.01876
  5.500     0.01769
  5.510     0.01651
  5.520     0.01676
  5.530     0.01526
  5.540     0.01516
  5.550     0.01379
  5.560     0.01455
  5.570     0.01256
  5.580     0.01207
  5.590     0.01005
  5.600     0.01066
  5.610     0.00885
  5.620     0.00903
  5.630     0.00870
  5.640     0.00899
  5.650     0.00867
  5.660     0.00827
  5.670     0.00845
  5.680     0.00878
  5.690     0.00780
  5.700     0.00921
  5.710     0.00892
  5.720     0.00822
  5.730     0.00824
  5.740     0.00842
  5.750     0.00890
  5.760     0.01029
  5.770     0.01182
  5.780     0.01176
  5.790     0.01174
  5.800     0.01335
  5.810     0.01389
  5.820     0.01608
  5.830     0.01605
  5.840     0.01681
  5.850     0.01716
  5.860     0.01918
  5.870     0.02015
  5.880     0.02190
  5.890     0.02350
  5.900     0.02409
  5.910     0.02471
  5.920     0.02678
  5.930     0.02961
  5.940     0.02974
  5.950     0.02973
  5.960     0.03173
  5.970     0.03197
  5.980     0.03360
  5.990     0.03428
  6.000     0.03564
  6.010     0.03467
  6.020     0.03563
  6.030     0.03800
  6.040     0.03812
  6.050     0.03719
  6.060     0.03814
  6.070     0.03516
  6.080     0.03672
  6.090     0.03569
  6.100     0.03394
  6.110     0.03582
  6.120     0.03151
  6.130     0.03075
  6.140     0.03144
  6.150     0.03132
  6.160     0.02868
  6.170     0.02693
  6.180     0.02505
  6.190     0.02455
  6.200     0.02225
  6.210     0.02102
  6.220     0.02183
  6.230     0.01906
  6.240     0.01850
  6.250     0.01854
  6.260     0.01712
  6.270     0.01534
  6.280     0.01414
  6.290     0.01380
  6.300     0.01399
  6.310     0.01112
  6.320     0.01124
  6.330     0.01154
  6.340     0.00983
  6.350     0.00968
  6.360     0.00963
  6.370     0.00841
  6.380     0.00860
  6.390     0.00862
  6.400     0.00940
  6.410     0.00907
  6.420     0.00875
  6.430     0.00833
  6.440     0.00893
  6.450     0.00922
  6.460     0.00931
  6.470     0.01004
  6.480     0.01019
  6.490     0.01017
  6.500     0.01033
  6.510     0.01061
  6.520     0.01087
  6.530     0.01058
  6.540     0.01013
  6.550     0.01062
  6.560     0.01247
  6.570     0.01105
  6.580     0.01203
  6.590     0.01214
  6.600     0.01269
  6.610     0.01264
  6.620     0.01311
  6.630     0.01171
  6.640     0.01334
  6.650     0.01292
  6.660     0.01280
  6.670     0.01328
  6.680     0.01038
  6.690     0.01298
  6.700     0.01132
  6.710     0.01147
  6.720     0.01175
  6.730     0.01095
  6.740     0.01077
  6.750     0.01176
  6.760     0.01148
  6.770     0.01237
  6.780     0.01206
  6.790     0.01307
  6.800     0.01376
  6.810     0.01255
  6.820     0.01452
  6.830     0.01453
  6.840     0.01470
  6.850     0.01660
  6.860     0.01715
  6.870     0.01789
  6.880     0.01716
  6.890     0.01901
  6.900     0.02180
  6.910     0.02300
  6.920     0.02401
  6.930     0.02735
  6.940     0.02999
  6.950     0.03020
  6.960     0.03201
  6.970     0.03278
  6.980     0.03721
  6.990     0.03644
  7.000     0.03873
  7.010     0.04164
  7.020     0.04385
  7.030     0.04389
  7.040     0.04836
  7.050     0.05127
  7.060     0.05194
  7.070     0.05490
  7.080     0.05488
  7.090     0.05505
  7.100     0.05491
  7.110     0.05588
  7.120     0.05694
  7.130     0.05830
  7.140     0.05754
  7.150     0.05927
  7.160     0.05869
  7.170     0.05764
  7.180     0.05941
  7.190     0.05495
  7.200     0.05554
  7.210     0.05435
  7.220     0.05427
  7.230     0.05250
  7.240     0.04865
  7.250     0.04678
  7.260     0.04647
  7.270     0.04475
  7.280     0.04238
  7.290     0.03896
  7.300     0.03927
  7.310     0.03927
  7.320     0.03337
  7.330     0.03299
  7.340     0.02970
  7.350     0.02823
  7.360     0.02647
  7.370     0.02557
  7.380     0.02344
  7.390     0.02252
  7.400     0.02113
  7.410     0.01936
  7.420     0.01818
  7.430     0.01804
  7.440     0.01722
  7.450     0.01585
  7.460     0.01369
  7.470     0.01516
  7.480     0.01272
  7.490     0.01270
  7.500     0.01131
  7.510     0.01173
  7.520     0.01215
  7.530     0.01286
  7.540     0.01195
  7.550     0.00988
  7.560     0.00954
  7.570     0.00916
  7.580     0.00937
  7.590     0.00954
  7.600     0.00912
  7.610     0.00963
  7.620     0.01056
  7.630     0.00974
  7.640     0.00910
  7.650     0.00929
  7.660     0.00968
  7.670     0.00952
  7.680     0.00985
  7.690     0.00984
  7.700     0.01014
  7.710     0.00964
  7.720     0.01008
  7.730     0.00979
  7.740     0.00997
  7.750     0.01004
  7.760     0.01136
  7.770     0.01126
  7.780     0.01138
  7.790     0.01179
  7.800     0.01217
  7.810     0.01285
  7.820     0.01350
  7.830     0.01254
  7.840     0.01286
  7.850     0.01409
  7.860     0.01600
  7.870     0.01561
  7.880     0.01840
  7.890     0.01729
  7.900     0.02020
  7.910     0.02112
  7.920     0.02120
  7.930     0.02109
  7.940     0.02503
  7.950     0.02478
  7.960     0.02486
  7.970     0.02664
  7.980     0.02792
  7.990     0.02972
  8.000     0.02903
  8.010     0.03224
  8.020     0.03184
  8.030     0.03447
  8.040     0.03533
  8.050     0.03604
  8.060     0.03619
  8.070     0.03777
  8.080     0.03521
  8.090     0.03611
  8.100     0.03631
  8.110     0.03831
  8.120     0.03743
  8.130     0.03784
  8.140     0.03739
  8.150     0.03903
  8.160     0.03682
  8.170     0.03498
  8.180     0.03528
  8.190     0.03489
  8.200     0.03480
  8.210     0.03244
  8.220     0.03264
  8.230     0.03119
  8.240     0.03341
  8.250     0.02913
  8.260     0.03042
  8.270     0.02808
  8.280     0.03042
  8.290     0.02593
  8.300     0.02663
  8.310     0.02589
  8.320     0.02581
  8.330     0.02554
  8.340     0.02546
  8.350     0.02488
  8.360     0.02438
  8.370     0.02416
  8.380     0.02541
  8.390     0.02429
  8.400     0.02499
  8.410     0.02327
  8.420     0.02415
  8.430     0.02368
  8.440     0.02430
  8.450     0.02546
  8.460     0.02510
  8.470     0.02463
  8.480     0.02573
  8.490     0.02611
  8.500     0.02619
  8.510     0.02500
  8.520     0.02600
  8.530     0.02615
  8.540     0.02622
  8.550     0.02570
  8.560     0.02605
  8.570     0.02620
  8.580     0.02474
  8.590     0.02507
  8.600     0.02642
  8.610     0.02471
  8.620     0.02542
  8.630     0.02458
  8.640     0.02313
  8.650     0.02336
  8.660     0.02358
  8.670     0.02328
  8.680     0.02368
  8.690     0.02343
  8.700     0.02224
  8.710     0.02204
  8.720     0.02099
  8.730     0.02227
  8.740     0.02114
  8.750     0.02157
  8.760     0.02067
  8.770     0.02149
  8.780     0.02052
  8.790     0.02134
  8.800     0.02246
  8.810     0.02164
  8.820     0.02266
  8.830     0.02261
  8.840     0.02182
  8.850     0.02132
  8.860     0.02243
  8.870     0.02260
  8.880     0.02164
  8.890     0.02307
  8.900     0.02327
  8.910     0.02317
  8.920     0.02395
  8.930     0.02378
  8.940     0.02485
  8.950     0.02480
  8.960     0.02350
  8.970     0.02501
  8.980     0.02330
  8.990     0.02474
  9.000     0.02456
  9.010     0.02509
  9.020     0.02417
  9.030     0.02339
  9.040     0.02409
  9.050     0.02344
  9.060     0.02300
  9.070     0.02396
  9.080     0.02242
  9.090     0.02199
  9.100     0.02218
  9.110     0.02122
  9.120     0.02275
  9.130     0.02131
  9.140     0.02093
  9.150     0.02110
  9.160     0.02074
  9.170     0.02117
  9.180     0.02108
  9.190     0.02129
  9.200     0.02160
  9.210     0.02153
  9.220     0.02381
  9.230     0.02201
  9.240     0.02269
  9.250     0.02279
  9.260     0.02312
  9.270     0.02415
  9.280     0.02326
  9.290     0.02387
  9.300     0.02589
  9.310     0.02482
  9.320     0.02595
  9.330     0.02496
  9.340     0.02643
  9.350     0.02596
  9.360     0.02717
  9.370     0.02728
  9.380     0.02839
  9.390     0.02699
  9.400     0.02610
  9.410     0.02828
  9.420     0.02904
  9.430     0.02917
  9.440     0.02976
  9.450     0.03140
  9.460     0.03199
  9.470     0.02999
  9.480     0.03388
  9.490     0.03364
  9.500     0.03422
  9.510     0.03630
  9.520     0.03831
  9.530     0.03699
  9.540     0.03919
  9.550     0.04085
  9.560     0.03927
  9.570     0.04177
  9.580     0.04394
  9.590     0.04501
  9.600     0.04478
  9.610     0.04701
  9.620     0.04932
  9.630     0.04730
  9.640     0.04881
  9.650     0.05107
  9.660     0.05163
  9.670     0.05395
  9.680     0.05365
  9.690     0.05445
  9.700     0.05789
  9.710     0.05569
  9.720     0.05502
  9.730     0.05521
  9.740     0.05808
  9.750     0.05734
  9.760     0.05652
  9.770     0.05635
  9.780     0.05612
  9.790     0.05514
  9.800     0.05225
  9.810     0.05289
  9.820     0.05157
  9.830     0.05169
  9.840     0.04777
  9.850     0.04562
  9.860     0.04553
  9.870     0.04446
  9.880     0.04254
  9.890     0.03999
  9.900     0.03741
  9.910     0.03698
  9.920     0.03399
  9.930     0.03395
  9.940     0.03093
  9.950     0.02859
  9.960     0.02568
  9.970     0.02494
  9.980     0.02357
  9.990     0.02119
 10.000     0.02193
 10.010     0.02097
 10.020     0.01855
 10.030     0.01840
 10.040     0.01636
 10.050     0.01582
 10.060     0.01439
 10.070     0.01387
 10.080     0.01343
 10.090     0.01211
 10.100     0.01208
 10.110     0.01248
 10.120     0.01158
 10.130     0.01194
 10.140     0.01249
 10.150     0.01103
 10.160     0.01173
 10.170     0.01180
 10.180     0.01141
 10.190     0.01305
 10.200     0.01387
 10.210     0.01373
 10.220     0.01483
 10.230     0.01481
 10.240     0.01497
 10.250     0.01619
 10.260     0.01624
 10.270     0.01791
 10.280     0.01942
 10.290     0.02072
 10.300     0.02131
 10.310     0.02242
 10.320     0.02369
 10.330     0.02468
 10.340     0.02461
 10.350     0.02630
 10.360     0.02794
 10.370     0.02851
 10.380     0.03029
 10.390     0.02910
 10.400     0.03088
 10.410     0.03243
 10.420     0.03196
 10.430     0.03354
 10.440     0.03343
 10.450     0.03329
 10.460     0.03391
 10.470     0.03427
 10.480     0.03432
 10.490     0.03493
 10.500     0.03303
 10.510     0.03585
 10.520     0.03565
 10.530     0.03262
 10.540     0.03340
 10.550     0.03285
 10.560     0.03361
 10.570     0.03188
 10.580     0.03094
 10.590     0.03033
 10.600     0.03036
 10.610     0.03003
 10.620     0.02872
 10.630     0.02645
 10.640     0.02801
 10.650     0.02515
 10.660     0.02412
 10.670     0.02238
 10.680     0.02424
 10.690     0.02264
 10.700     0.02189
 10.710     0.02111
 10.720     0.02195
 10.730     0.02109
 10.740     0.02050
 10.750     0.02016
 10.760     0.01971
 10.770     0.02004
 10.780     0.01927
 10.790     0.01990
 10.800     0.01903
 10.810     0.01905
 10.820     0.01877
 10.830     0.01888
 10.840     0.01793
 10.850     0.02051
 10.860     0.01935
 10.870     0.02066
 10.880     0.01981
 10.890     0.02104
 10.900     0.02116
 10.910     0.02221
 10.920     0.02203
 10.930     0.02297
 10.940     0.02296
 10.950     0.02392
 10.960     0.02591
 10.970     0.02581
 10.980     0.02529
 10.990     0.02670
 11.000     0.02620
 11.010     0.02731
 11.020     0.02905
 11.030     0.02789
 11.040     0.03014
 11.050     0.03073
 11.060     0.03133
 11.070     0.03154
 11.080     0.03195
 11.090     0.03279
 11.100     0.03384
 11.110     0.03395
 11.120     0.03315
 11.130     0.03389
 11.140     0.03343
 11.150     0.03271
 11.160     0.03460
 11.170     0.03420
 11.180     0.03421
 11.190     0.03482
 11.200     0.03547
 11.210     0.03564
 11.220     0.03549
 11.230     0.03472
 11.240     0.03443
 11.250     0.03539
 11.260     0.03466
 11.270     0.03533
 11.280     0.03425
 11.290     0.03399
 11.300     0.03380
 11.310     0.03176
 11.320     0.03206
 11.330     0.03097
 11.340     0.03276
 11.350     0.03400
 11.360     0.03170
 11.370     0.03319
 11.380     0.03038
 11.390     0.03244
 11.400     0.03172
 11.410     0.03286
 11.420     0.03228
 11.430     0.03281
 11.440     0.03222
 11.450     0.03330
 11.460     0.03242
 11.470     0.03290
 11.480     0.03266
 11.490     0.03302
 11.500     0.03323
 11.510     0.03383
 11.520     0.03346
 11.530     0.03603
 11.540     0.03501
 11.550     0.03621
 11.560     0.03635
 11.570     0.03691
 11.580     0.03571
 11.590     0.03713
 11.600     0.03796
 11.610     0.04038
 11.620     0.04061
 11.630     0.04097
 11.640     0.04106
 11.650     0.04212
 11.660     0.04411
 11.670     0.04373
 11.680     0.04300
 11.690     0.04641
 11.700     0.04562
 11.710     0.04629
 11.720     0.04634
 11.730     0.04446
 11.740     0.04645
 11.750     0.04730
 11.760     0.04643
 11.770     0.04626
 11.780     0.04735
 11.790     0.04742
 11.800     0.04810
 11.810     0.04656
 11.820     0.04632
 11.830     0.04676
 11.840     0.04458
 11.850     0.04559
 11.860     0.04347
 11.870     0.04537
 11.880     0.04425
 11.890     0.04303
 11.900     0.04237
 11.910     0.04155
 11.920     0.03973
 11.930     0.03977
 11.940     0.04062
 11.950     0.03837
 11.960     0.03901
 11.970     0.03628
 11.980     0.03658
 11.990     0.03563
 12.000     0.03622
 12.010     0.03417
 12.020     0.03309
 12.030     0.03273
 12.040     0.03231
 12.050     0.03208
 12.060     0.03220
 12.070     0.03103
 12.080     0.03119
 12.090     0.03046
 12.100     0.02992
 12.110     0.02999
 12.120     0.02924
 12.130     0.02852
 12.140     0.03060
 12.150     0.02987
 12.160     0.02890
 12.170     0.02945
 12.180     0.02906
 12.190     0.03012
 12.200     0.02945
 12.210     0.02944
 12.220     0.03106
 12.230     0.03123
 12.240     0.02928
 12.250     0.03202
 12.260     0.03000
 12.270     0.03044
 12.280     0.03258
 12.290     0.03122
 12.300     0.02938
 12.310     0.03096
 12.320     0.03024
 12.330     0.03047
 12.340     0.03147
 12.350     0.03293
 12.360     0.03221
 12.370     0.03284
 12.380     0.03206
 12.390     0.03166
 12.400     0.03239
 12.410     0.03178
 12.420     0.03144
 12.430     0.03071
 12.440     0.03151
 12.450     0.02966
 12.460     0.03036
 12.470     0.03026
 12.480     0.03043
 12.490     0.03081
 12.500     0.03044
 12.510     0.03088
 12.520     0.02861
 12.530     0.02904
 12.540     0.02832
 12.550     0.02693
 12.560     0.02695
 12.570     0.02689
 12.580     0.02682
 12.590     0.02735
 12.600     0.02768
 12.610     0.02651
 12.620     0.02661
 12.630     0.02678
 12.640     0.02686
 12.650     0.02639
 12.660     0.02534
 12.670     0.02615
 12.680     0.02676
 12.690     0.02690
 12.700     0.02648
 12.710     0.02660
 12.720     0.02778
 12.730     0.02776
 12.740     0.02598
 12.750     0.02612
 12.760     0.02701
 12.770     0.02639
 12.780     0.02571
 12.790     0.02728
 12.800     0.02800
 12.810     0.02769
 12.820     0.02749
 12.830     0.02740
 12.840     0.02893
 12.850     0.02755
 12.860     0.02812
 12.870     0.02841
 12.880     0.02894
 12.890     0.02865
 12.900     0.02858
 12.910     0.02905
 12.920     0.02916
 12.930     0.02959
 12.940     0.02705
 12.950     0.02940
 12.960     0.03077
 12.970     0.02925
 12.980     0.02845
 12.990     0.02823
 13.000     0.02794
 13.010     0.02834
 13.020     0.02672
 13.030     0.02645
 13.040     0.02728
 13.050     0.02627
 13.060     0.02702
 13.070     0.02655
 13.080     0.02541
 13.090     0.02527
 13.100     0.02555
 13.110     0.02465
 13.120     0.02486
 13.130     0.02373
 13.140     0.02406
 13.150     0.02376
 13.160     0.02419
 13.170     0.02382
 13.180     0.02301
 13.190     0.02321
 13.200     0.02422
 13.210     0.02367
 13.220     0.02522
 13.230     0.02345
 13.240     0.02388
 13.250     0.02446
 13.260     0.02488
 13.270     0.02552
 13.280     0.02621
 13.290     0.02695
 13.300     0.02724
 13.310     0.02763
 13.320     0.02879
 13.330     0.02926
 13.340     0.03091
 13.350     0.03133
 13.360     0.03237
 13.370     0.03356
 13.380     0.03268
 13.390     0.03356
 13.400     0.03508
 13.410     0.03749
 13.420     0.03700
 13.430     0.03712
 13.440     0.03711
 13.450     0.03733
 13.460     0.03910
 13.470     0.04037
 13.480     0.04109
 13.490     0.04222
 13.500     0.04231
 13.510     0.04282
 13.520     0.04101
 13.530     0.04318
 13.540     0.04300
 13.550     0.04278
 13.560     0.04233
 13.570     0.04462
 13.580     0.04342
 13.590     0.04463
 13.600     0.04183
 13.610     0.04195
 13.620     0.04176
 13.630     0.04200
 13.640     0.04214
 13.650     0.04051
 13.660     0.03997
 13.670     0.04052
 13.680     0.04117
 13.690     0.03932
 13.700     0.04024
 13.710     0.03920
 13.720     0.04024
 13.730     0.03843
 13.740     0.03760
 13.750     0.03906
 13.760     0.03750
 13.770     0.03878
 13.780     0.03797
 13.790     0.03997
 13.800     0.03883
 13.810     0.03893
 13.820     0.03892
 13.830     0.04164
 13.840     0.03962
 13.850     0.04102
 13.860     0.04058
 13.870     0.04220
 13.880     0.04096
 13.890     0.04096
 13.900     0.04464
 13.910     0.04274
 13.920     0.04558
 13.930     0.04554
 13.940     0.04616
 13.950     0.04723
 13.960     0.04796
 13.970     0.04847
 13.980     0.04805
 13.990     0.05001
 14.000     0.04982
 14.010     0.04960
 14.020     0.05058
 14.030     0.04998
 14.040     0.05117
 14.050     0.05143
 14.060     0.05168
 14.070     0.05007
 14.080     0.05059
 14.090     0.05189
 14.100     0.05131
 14.110     0.05228
 14.120     0.05205
 14.130     0.04980
 14.140     0.04886
 14.150     0.04991
 14.160     0.04946
 14.170     0.04898
 14.180     0.04837
 14.190     0.04752
 14.200     0.04869
 14.210     0.04567
 14.220     0.04499
 14.230     0.04550
 14.240     0.04456
 14.250     0.04267
 14.260     0.04215
 14.270     0.03988
 14.280     0.04111
 14.290     0.03917
 14.300     0.03998
 14.310     0.03713
 14.320     0.03799
 14.330     0.03570
 14.340     0.03487
 14.350     0.03386
 14.360     0.03523
 14.370     0.03369
 14.380     0.03231
 14.390     0.03142
 14.400     0.03233
 14.410     0.02959
 14.420     0.02814
 14.430     0.02820
 14.440     0.02936
 14.450     0.02684
 14.460     0.02658
 14.470     0.02646
 14.480     0.02440
 14.490     0.02407
 14.500     0.02414
 14.510     0.02411
 14.520     0.02355
 14.530     0.02194
 14.540     0.02108
 14.550     0.02205
 14.560     0.02012
 14.570     0.01993
 14.580     0.02049
 14.590     0.02019
 14.600     0.01868
 14.610     0.01814
 14.620     0.01849
 14.630     0.01835
 14.640     0.01737
 14.650     0.01764
 14.660     0.01702
 14.670     0.01739
 14.680     0.01753
 14.690     0.01692
 14.700     0.01678
 14.710     0.01696
 14.720     0.01708
 14.730     0.01749
 14.740     0.01761
 14.750     0.01718
 14.760     0.01902
 14.770     0.01781
 14.780     0.01784
 14.790     0.01885
 14.800     0.01965
 14.810     0.02003
 14.820     0.02040
 14.830     0.02144
 14.840     0.02119
 14.850     0.02276
 14.860     0.02453
 14.870     0.02466
 14.880     0.02616
 14.890     0.02602
 14.900     0.02712
 14.910     0.02779
 14.920     0.02793
 14.930     0.02859
 14.940     0.03013
 14.950     0.03168
 14.960     0.03158
 14.970     0.03235
 14.980     0.03383
 14.990     0.03445
 15.000     0.03501
 15.010     0.03498
 15.020     0.03497
 15.030     0.03531
 15.040     0.03608
 15.050     0.03680
 15.060     0.03577
 15.070     0.03719
 15.080     0.03651
 15.090     0.03691
 15.100     0.03745
 15.110     0.03770
 15.120     0.03638
 15.130     0.03694
 15.140     0.03475
 15.150     0.03647
 15.160     0.03506
 15.170     0.03628
 15.180     0.03643
 15.190     0.03511
 15.200     0.03458
 15.210     0.03332
 15.220     0.03403
 15.230     0.03463
 15.240     0.03387
 15.250     0.03407
 15.260     0.03518
 15.270     0.03392
 15.280     0.03296
 15.290     0.03311
 15.300     0.03390
 15.310     0.03468
 15.320     0.03378
 15.330     0.03417
 15.340     0.03429
 15.350     0.03493
 15.360     0.03574
 15.370     0.03549
 15.380     0.03672
 15.390     0.03704
 15.400     0.03716
 15.410     0.03743
 15.420     0.03688
 15.430     0.03877
 15.440     0.03846
 15.450     0.03919
 15.460     0.04005
 15.470     0.04078
 15.480     0.03986
 15.490     0.04139
 15.500     0.04233
 15.510     0.04305
 15.520     0.04186
 15.530     0.04398
 15.540     0.04266
 15.550     0.04397
 15.560     0.04334
 15.570     0.04487
 15.580     0.04286
 15.590     0.04429
 15.600     0.04292
 15.610     0.04554
 15.620     0.04440
 15.630     0.04446
 15.640     0.04402
 15.650     0.04407
 15.660     0.04461
 15.670     0.04345
 15.680     0.04263
 15.690     0.04262
 15.700     0.04384
 15.710     0.04106
 15.720     0.04145
 15.730     0.04063
 15.740     0.04106
 15.750     0.04040
 15.760     0.04035
 15.770     0.04182
 15.780     0.03842
 15.790     0.03851
 15.800     0.03980
 15.810     0.03856
 15.820     0.03787
 15.830     0.03783
 15.840     0.03724
 15.850     0.03730
 15.860     0.03645
 15.870     0.03439
 15.880     0.03533
 15.890     0.03532
 15.900     0.03470
 15.910     0.03540
 15.920     0.03517
 15.930     0.03512
 15.940     0.03314
 15.950     0.03419
 15.960     0.03448
 15.970     0.03502
 15.980     0.03389
 15.990     0.03153
 16.000     0.03213
 16.010     0.03268
 16.020     0.03179
 16.030     0.03310
 16.040     0.03202
 16.050     0.03242
 16.060     0.03378
 16.070     0.03246
 16.080     0.03224
 16.090     0.03346
 16.100     0.03352
 16.110     0.03321
 16.120     0.03417
 16.130     0.03416
 16.140     0.03499
 16.150     0.03474
 16.160     0.03632
 16.170     0.03735
 16.180     0.03677
 16.190     0.03619
 16.200     0.03779
 16.210     0.03873
 16.220     0.03775
 16.230     0.04047
 16.240     0.03906
 16.250     0.04103
 16.260     0.04057
 16.270     0.04202
 16.280     0.04362
 16.290     0.04349
 16.300     0.04251
 16.310     0.04480
 16.320     0.04420
 16.330     0.04536
 16.340     0.04445
 16.350     0.04520
 16.360     0.04620
 16.370     0.04643
 16.380     0.04592
 16.390     0.04709
 16.400     0.04754
 16.410     0.04801
 16.420     0.04669
 16.430     0.04623
 16.440     0.04707
 16.450     0.04596
 16.460     0.04673
 16.470     0.04617
 16.480     0.04729
 16.490     0.04597
 16.500     0.04578
 16.510     0.04427
 16.520     0.04573
 16.530     0.04316
 16.540     0.04407
 16.550     0.04384
 16.560     0.04230
 16.570     0.04285
 16.580     0.04343
 16.590     0.04067
 16.600     0.03925
 16.610     0.03939
 16.620     0.03848
 16.630     0.03759
 16.640     0.03681
 16.650     0.03544
 16.660     0.03503
 16.670     0.03417
 16.680     0.03466
 16.690     0.03392
 16.700     0.03195
 16.710     0.03224
 16.720     0.03159
 16.730     0.03240
 16.740     0.03084
 16.750     0.02873
 16.760     0.02856
 16.770     0.02898
 16.780     0.02923
 16.790     0.02942
 16.800     0.02848
 16.810     0.02781
 16.820     0.02613
 16.830     0.02701
 16.840     0.02790
 16.850     0.02693
 16.860     0.02596
 16.870     0.02680
 16.880     0.02474
 16.890     0.02535
 16.900     0.02672
 16.910     0.02559
 16.920     0.02428
 16.930     0.02465
 16.940     0.02538
 16.950     0.02410
 16.960     0.02401
 16.970     0.02353
 16.980     0.02461
 16.990     0.02480
 17.000     0.02383
 17.010     0.02342
 17.020     0.02405
 17.030     0.02321
 17.040     0.02451
 17.050     0.02374
 17.060     0.02385
 17.070     0.02365
 17.080     0.02411
 17.090     0.02359
 17.100     0.02410
 17.110     0.02493
 17.120     0.02339
 17.130     0.02437
 17.140     0.02462
 17.150     0.02356
 17.160     0.02515
 17.170     0.02589
 17.180     0.02473
 17.190     0.02558
 17.200     0.02596
 17.210     0.02470
 17.220     0.02688
 17.230     0.02650
 17.240     0.02670
 17.250     0.02738
 17.260     0.02703
 17.270     0.02744
 17.280     0.02772
 17.290     0.02807
 17.300     0.02807
 17.310     0.03001
 17.320     0.02948
 17.330     0.03019
 17.340     0.02958
 17.350     0.02964
 17.360     0.03066
 17.370     0.03176
 17.380     0.03228
 17.390     0.03255
 17.400     0.03273
 17.410     0.03365
 17.420     0.03390
 17.430     0.03381
 17.440     0.03474
 17.450     0.03666
 17.460     0.03459
 17.470     0.03637
 17.480     0.03734
 17.490     0.03628
 17.500     0.03753
 17.510     0.03685
 17.520     0.03851
 17.530     0.03804
 17.540     0.03998
 17.550     0.03982
 17.560     0.04165
 17.570     0.04133
 17.580     0.04011
 17.590     0.04192
 17.600     0.04253
 17.610     0.04332
 17.620     0.04398
 17.630     0.04382
 17.640     0.04403
 17.650     0.04348
 17.660     0.04455
 17.670     0.04671
 17.680     0.04552
 17.690     0.04476
 17.700     0.04609
 17.710     0.04385
 17.720     0.04610
 17.730     0.04591
 17.740     0.04571
 17.750     0.04638
 17.760     0.04558
 17.770     0.04468
 17.780     0.04494
 17.790     0.04642
 17.800     0.04613
 17.810     0.04443
 17.820     0.04514
 17.830     0.04685
 17.840     0.04502
 17.850     0.04514
 17.860     0.04470
 17.870     0.04491
 17.880     0.04410
 17.890     0.04396
 17.900     0.04350
 17.910     0.04360
 17.920     0.04329
 17.930     0.04249
 17.940     0.04285
 17.950     0.04198
 17.960     0.04282
 17.970     0.04174
 17.980     0.04158
 17.990     0.04252
 18.000     0.04256
 18.010     0.04097
 18.020     0.04250
 18.030     0.04195
 18.040     0.04202
 18.050     0.04079
 18.060     0.04081
 18.070     0.04092
 18.080     0.04060
 18.090     0.04006
 18.100     0.04168
 18.110     0.04037
 18.120     0.03876
 18.130     0.03874
 18.140     0.03786
 18.150     0.03961
 18.160     0.04035
 18.170     0.03780
 18.180     0.03748
 18.190     0.03706
 18.200     0.03777
 18.210     0.03632
 18.220     0.03766
 18.230     0.03791
 18.240     0.03629
 18.250     0.03713
 18.260     0.03652
 18.270     0.03586
 18.280     0.03651
 18.290     0.03500
 18.300     0.03416
 18.310     0.03455
 18.320     0.03461
 18.330     0.03458
 18.340     0.03475
 18.350     0.03359
 18.360     0.03327
 18.370     0.03330
 18.380     0.03270
 18.390     0.03378
 18.400     0.03384
 18.410     0.03407
 18.420     0.03349
 18.430     0.03284
 18.440     0.03289
 18.450     0.03160
 18.460     0.03397
 18.470     0.03399
 18.480     0.03404
 18.490     0.03298
 18.500     0.03217
 18.510     0.03313
 18.520     0.03333
 18.530     0.03337
 18.540     0.03338
 18.550     0.03397
 18.560     0.03340
 18.570     0.03290
 18.580     0.03443
 18.590     0.03376
 18.600     0.03310
 18.610     0.03505
 18.620     0.03418
 18.630     0.03413
 18.640     0.03401
 18.650     0.03406
 18.660     0.03384
 18.670     0.03600
 18.680     0.03372
 18.690     0.03490
 18.700     0.03536
 18.710     0.03477
 18.720     0.03506
 18.730     0.03555
 18.740     0.03475
 18.750     0.03473
 18.760     0.03549
 18.770     0.03645
 18.780     0.03528
 18.790     0.03629
 18.800     0.03609
 18.810     0.03652
 18.820     0.03610
 18.830     0.03651
 18.840     0.03665
 18.850     0.03632
 18.860     0.03604
 18.870     0.03830
 18.880     0.03657
 18.890     0.03544
 18.900     0.03733
 18.910     0.03574
 18.920     0.03525
 18.930     0.03560
 18.940     0.03559
 18.950     0.03578
 18.960     0.03702
 18.970     0.03540
 18.980     0.03534
 18.990     0.03490
 19.000     0.03517
 19.010     0.03464
 19.020     0.03504
 19.030     0.03383
 19.040     0.03367
 19.050     0.03396
 19.060     0.03181
 19.070     0.03412
 19.080     0.03302
 19.090     0.03294
 19.100     0.03368
 19.110     0.03259
 19.120     0.03283
 19.130     0.03084
 19.140     0.03217
 19.150     0.03151
 19.160     0.03147
 19.170     0.03183
 19.180     0.03128
 19.190     0.02995
 19.200     0.03158
 19.210     0.03088
 19.220     0.03125
 19.230     0.02979
 19.240     0.03120
 19.250     0.03035
 19.260     0.03063
 19.270     0.03123
 19.280     0.03128
 19.290     0.03148
 19.300     0.03072
 19.310     0.02985
 19.320     0.03159
 19.330     0.03076
 19.340     0.03096
 19.350     0.03199
 19.360     0.03170
 19.370     0.03178
 19.380     0.03229
 19.390     0.03207
 19.400     0.03298
 19.410     0.03287
 19.420     0.03337
 19.430     0.03331
 19.440     0.03407
 19.450     0.03376
 19.460     0.03396
 19.470     0.03347
 19.480     0.03386
 19.490     0.03336
 19.500     0.03387
 19.510     0.03416
 19.520     0.03358
 19.530     0.03527
 19.540     0.03479
 19.550     0.03383
 19.560     0.03508
 19.570     0.03548
 19.580     0.03458
 19.590     0.03583
 19.600     0.03542
 19.610     0.03570
 19.620     0.03583
 19.630     0.03562
 19.640     0.03524
 19.650     0.03589
 19.660     0.03641
 19.670     0.03484
 19.680     0.03510
 19.690     0.03659
 19.700     0.03633
 19.710     0.03690
 19.720     0.03487
 19.730     0.03532
 19.740     0.03630
 19.750     0.03645
 19.760     0.03647
 19.770     0.03705
 19.780     0.03625
 19.790     0.03591
 19.800     0.03643
 19.810     0.03752
 19.820     0.03596
 19.830     0.03835
 19.840     0.03636
 19.850     0.03967
 19.860     0.03764
 19.870     0.03892
 19.880     0.03844
 19.890     0.03803
 19.900     0.03691
 19.910     0.03933
 19.920     0.03824
 19.930     0.04020
 19.940     0.03802
 19.950     0.03959
 19.960     0.03920
 19.970     0.03980
 19.980     0.03843
 19.990     0.03831
 20.000     0.03778
 20.010     0.03876
 20.020     0.03909
 20.030     0.03933
 20.040     0.03969
 20.050     0.03905
 20.060     0.03905
 20.070     0.03899
 20.080     0.03825
 20.090     0.03782
 20.100     0.03805
 20.110     0.03857
 20.120     0.03868
 20.130     0.03775
 20.140     0.03809
 20.150     0.03740
 20.160     0.03871
 20.170     0.03752
 20.180     0.03591
 20.190     0.03615
 20.200     0.03662
 20.210     0.03677
 20.220     0.03551
 20.230     0.03742
 20.240     0.03588
 20.250     0.03477
 20.260     0.03556
 20.270     0.03520
 20.280     0.03495
 20.290     0.03534
 20.300     0.03507
 20.310     0.03607
 20.320     0.03540
 20.330     0.03418
 20.340     0.03472
 20.350     0.03489
 20.360     0.03520
 20.370     0.03539
 20.380     0.03496
 20.390     0.03531
 20.400     0.03504
 20.410     0.03626
 20.420     0.03425
 20.430     0.03524
 20.440     0.03498
 20.450     0.03493
 20.460     0.03481
 20.470     0.03529
 20.480     0.03460
 20.490     0.03577
 20.500     0.03603
 20.510     0.03559
 20.520     0.03533
 20.530     0.03623
 20.540     0.03651
 20.550     0.03622
 20.560     0.03601
 20.570     0.03591
 20.580     0.03597
 20.590     0.03554
 20.600     0.03637
 20.610     0.03699
 20.620     0.03620
 20.630     0.03689
 20.640     0.03645
 20.650     0.03623
 20.660     0.03724
 20.670     0.03584
 20.680     0.03641
 20.690     0.03691
 20.700     0.03635
 20.710     0.03731
 20.720     0.03744
 20.730     0.03763
 20.740     0.03700
 20.750     0.03648
 20.760     0.03642
 20.770     0.03662
 20.780     0.03671
 20.790     0.03648
 20.800     0.03621
 20.810     0.03591
 20.820     0.03658
 20.830     0.03607
 20.840     0.03584
 20.850     0.03667
 20.860     0.03634
 20.870     0.03547
 20.880     0.03507
 20.890     0.03624
 20.900     0.03652
 20.910     0.03713
 20.920     0.03594
 20.930     0.03701
 20.940     0.03664
 20.950     0.03723
 20.960     0.03522
 20.970     0.03615
 20.980     0.03603
 20.990     0.03705
 21.000     0.03519
 21.010     0.03505
 21.020     0.03549
 21.030     0.03631
 21.040     0.03523
 21.050     0.03604
 21.060     0.03567
 21.070     0.03603
 21.080     0.03556
 21.090     0.03526
 21.100     0.03441
 21.110     0.03543
 21.120     0.03520
 21.130     0.03504
 21.140     0.03401
 21.150     0.03499
 21.160     0.03423
 21.170     0.03356
 21.180     0.03447
 21.190     0.03424
 21.200     0.03401
 21.210     0.03457
 21.220     0.03537
 21.230     0.03516
 21.240     0.03431
 21.250     0.03539
 21.260     0.03443
 21.270     0.03564
 21.280     0.03312
 21.290     0.03444
 21.300     0.03390
 21.310     0.03362
 21.320     0.03426
 21.330     0.03379
 21.340     0.03380
 21.350     0.03359
 21.360     0.03350
 21.370     0.03387
 21.380     0.03442
 21.390     0.03370
 21.400     0.03466
 21.410     0.03440
 21.420     0.03381
 21.430     0.03358
 21.440     0.03451
 21.450     0.03327
 21.460     0.03211
 21.470     0.03240
 21.480     0.03240
 21.490     0.03172
 21.500     0.03313
 21.510     0.03205
 21.520     0.03174
 21.530     0.03069
 21.540     0.03143
 21.550     0.03207
 21.560     0.03146
 21.570     0.02950
 21.580     0.03012
 21.590     0.03136
 21.600     0.02930
 21.610     0.02971
 21.620     0.02940
 21.630     0.02986
 21.640     0.02881
 21.650     0.02786
 21.660     0.02902
 21.670     0.02829
 21.680     0.02818
 21.690     0.02827
 21.700     0.02860
 21.710     0.02863
 21.720     0.02747
 21.730     0.02840
 21.740     0.02811
 21.750     0.02826
 21.760     0.02860
 21.770     0.02860
 21.780     0.02785
 21.790     0.02804
 21.800     0.02874
 21.810     0.02860
 21.820     0.02944
 21.830     0.02933
 21.840     0.03053
 21.850     0.03078
 21.860     0.03051
 21.870     0.03157
 21.880     0.03024
 21.890     0.03145
 21.900     0.03195
 21.910     0.03254
 21.920     0.03277
 21.930     0.03426
 21.940     0.03439
 21.950     0.03304
 21.960     0.03490
 21.970     0.03494
 21.980     0.03550
 21.990     0.03611
 22.000     0.03571
 22.010     0.03647
 22.020     0.03778
 22.030     0.03706
 22.040     0.03737
 22.050     0.03873
 22.060     0.03789
 22.070     0.03786
 22.080     0.04002
 22.090     0.04003
 22.100     0.04080
 22.110     0.04044
 22.120     0.03964
 22.130     0.04194
 22.140     0.04127
 22.150     0.04116
 22.160     0.04120
 22.170     0.04186
 22.180     0.04215
 22.190     0.04072
 22.200     0.04155
 22.210     0.04051
 22.220     0.04154
 22.230     0.04121
 22.240     0.04102
 22.250     0.04093
 22.260     0.04038
 22.270     0.03970
 22.280     0.04106
 22.290     0.03902
 22.300     0.03912
 22.310     0.03886
 22.320     0.03883
 22.330     0.03876
 22.340     0.03751
 22.350     0.03800
 22.360     0.03812
 22.370     0.03761
 22.380     0.03735
 22.390     0.03667
 22.400     0.03720
 22.410     0.03583
 22.420     0.03490
 22.430     0.03558
 22.440     0.03578
 22.450     0.03376
 22.460     0.03431
 22.470     0.03436
 22.480     0.03424
 22.490     0.03370
 22.500     0.03324
 22.510     0.03348
 22.520     0.03328
 22.530     0.03256
 22.540     0.03244
 22.550     0.03123
 22.560     0.03248
 22.570     0.03066
 22.580     0.03111
 22.590     0.03083
 22.600     0.03061
 22.610     0.03163
 22.620     0.02939
 22.630     0.03131
 22.640     0.02913
 22.650     0.02870
 22.660     0.02846
 22.670     0.02905
 22.680     0.02920
 22.690     0.02833
 22.700     0.02976
 22.710     0.02760
 22.720     0.02775
 22.730     0.02718
 22.740     0.02834
 22.750     0.02775
 22.760     0.02763
 22.770     0.02878
 22.780     0.02880
 22.790     0.02862
 22.800     0.02877
 22.810     0.02883
 22.820     0.02831
 22.830     0.02943
 22.840     0.03022
 22.850     0.02971
 22.860     0.02974
 22.870     0.02970
 22.880     0.03008
 22.890     0.03219
 22.900     0.03113
 22.910     0.03170
 22.920     0.03199
 22.930     0.03185
 22.940     0.03315
 22.950     0.03339
 22.960     0.03271
 22.970     0.03492
 22.980     0.03422
 22.990     0.03403
 23.000     0.03519
 23.010     0.03587
 23.020     0.03672
 23.030     0.03551
 23.040     0.03711
 23.050     0.03770
 23.060     0.03792
 23.070     0.03696
 23.080     0.03826
 23.090     0.03854
 23.100     0.03838
 23.110     0.03822
 23.120     0.03838
 23.130     0.03801
 23.140     0.03765
 23.150     0.03830
 23.160     0.03885
 23.170     0.04006
 23.180     0.03871
 23.190     0.03936
 23.200     0.04000
 23.210     0.04169
 23.220     0.04016
 23.230     0.03917
 23.240     0.03969
 23.250     0.03927
 23.260     0.03971
 23.270     0.03926
 23.280     0.03889
 23.290     0.03904
 23.300     0.03872
 23.310     0.03928
 23.320     0.03981
 23.330     0.03788
 23.340     0.03731
 23.350     0.03802
 23.360     0.03915
 23.370     0.03892
 23.380     0.03763
 23.390     0.03907
 23.400     0.03684
 23.410     0.03843
 23.420     0.03650
 23.430     0.03680
 23.440     0.03720
 23.450     0.03677
 23.460     0.03716
 23.470     0.03686
 23.480     0.03561
 23.490     0.03584
 23.500     0.03605
 23.510     0.03648
 23.520     0.03451
 23.530     0.03610
 23.540     0.03481
 23.550     0.03476
 23.560     0.03307
 23.570     0.03327
 23.580     0.03255
 23.590     0.03345
 23.600     0.03259
 23.610     0.03233
 23.620     0.03311
 23.630     0.03154
 23.640     0.03314
 23.650     0.03191
 23.660     0.03202
 23.670     0.03156
 23.680     0.03057
 23.690     0.02983
 23.700     0.03024
 23.710     0.03033
 23.720     0.03049
 23.730     0.02957
 23.740     0.02993
 23.750     0.02937
 23.760     0.02937
 23.770     0.02838
 23.780     0.02761
 23.790     0.02778
 23.800     0.02683
 23.810     0.02861
 23.820     0.02739
 23.830     0.02754
 23.840     0.02745
 23.850     0.02704
 23.860     0.02613
 23.870     0.02606
 23.880     0.02649
 23.890     0.02527
 23.900     0.02509
 23.910     0.02600
 23.920     0.02543
 23.930     0.02471
 23.940     0.02463
 23.950     0.02452
 23.960     0.02503
 23.970     0.02499
 23.980     0.02513
 23.990     0.02457
 24.000     0.02586
 24.010     0.02493
 24.020     0.02514
 24.030     0.02542
 24.040     0.02534
 24.050     0.02578
 24.060     0.02610
 24.070     0.02553
 24.080     0.02601
 24.090     0.02629
 24.100     0.02637
 24.110     0.02639
 24.120     0.02604
 24.130     0.02679
 24.140     0.02777
 24.150     0.02665
 24.160     0.02741
 24.170     0.02817
 24.180     0.02722
 24.190     0.02859
 24.200     0.02810
 24.210     0.02867
 24.220     0.02940
 24.230     0.03057
 24.240     0.03015
 24.250     0.03024
 24.260     0.03111
 24.270     0.03070
 24.280     0.03146
 24.290     0.03161
 24.300     0.03305
 24.310     0.03250
 24.320     0.03245
 24.330     0.03251
 24.340     0.03297
 24.350     0.03369
 24.360     0.03275
 24.370     0.03242
 24.380     0.03344
 24.390     0.03345
 24.400     0.03414
 24.410     0.03415
 24.420     0.03422
 24.430     0.03556
 24.440     0.03369
 24.450     0.03536
 24.460     0.03543
 24.470     0.03547
 24.480     0.03598
 24.490     0.03582
 24.500     0.03570
 24.510     0.03576
 24.520     0.03524
 24.530     0.03482
 24.540     0.03516
 24.550     0.03512
 24.560     0.03572
 24.570     0.03603
 24.580     0.03605
 24.590     0.03599
 24.600     0.03732
 24.610     0.03652
 24.620     0.03604
 24.630     0.03566
 24.640     0.03634
 24.650     0.03542
 24.660     0.03499
 24.670     0.03543
 24.680     0.03585
 24.690     0.03509
 24.700     0.03536
 24.710     0.03563
 24.720     0.03510
 24.730     0.03600
 24.740     0.03576
 24.750     0.03541
 24.760     0.03514
 24.770     0.03534
 24.780     0.03650
 24.790     0.03484
 24.800     0.03676
 24.810     0.03551
 24.820     0.03487
 24.830     0.03448
 24.840     0.03437
 24.850     0.03464
 24.860     0.03441
 24.870     0.03450
 24.880     0.03448
 24.890     0.03423
 24.900     0.03534
 24.910     0.03488
 24.920     0.03499
 24.930     0.03482
 24.940     0.03395
 24.950     0.03396
 24.960     0.03428
 24.970     0.03314
 24.980     0.03377
 24.990     0.03466
 25.000     0.03240
 25.010     0.03295
 25.020     0.03399
 25.030     0.03391
 25.040     0.03278
 25.050     0.03295
 25.060     0.03380
 25.070     0.03282
 25.080     0.03207
 25.090     0.03242
 25.100     0.03423
 25.110     0.03221
 25.120     0.03274
 25.130     0.03120
 25.140     0.03222
 25.150     0.03168
 25.160     0.03203
 25.170     0.03186
 25.180     0.03205
 25.190     0.03124
 25.200     0.03039
 25.210     0.03130
 25.220     0.03101
 25.230     0.03148
 25.240     0.03145
 25.250     0.03104
 25.260     0.03072
 25.270     0.03032
 25.280     0.03129
 25.290     0.03099
 25.300     0.03053
 25.310     0.03153
 25.320     0.03030
 25.330     0.03020
 25.340     0.03063
 25.350     0.03025
 25.360     0.03037
 25.370     0.03020
 25.380     0.03005
 25.390     0.03120
 25.400     0.03086
 25.410     0.02976
 25.420     0.03082
 25.430     0.03067
 25.440     0.02946
 25.450     0.03124
 25.460     0.03039
 25.470     0.03098
 25.480     0.03050
 25.490     0.02988
 25.500     0.03112
 25.510     0.03027
 25.520     0.03071
 25.530     0.03079
 25.540     0.03159
 25.550     0.03100
 25.560     0.03155
 25.570     0.03143
 25.580     0.03071
 25.590     0.03092
 25.600     0.03211
 25.610     0.03150
 25.620     0.03154
 25.630     0.03209
 25.640     0.03119
 25.650     0.03180
 25.660     0.03160
 25.670     0.03127
 25.680     0.03093
 25.690     0.03256
 25.700     0.03207
 25.710     0.03160
 25.720     0.03225
 25.730     0.03205
 25.740     0.03258
 25.750     0.03212
 25.760     0.03205
 25.770     0.03322
 25.780     0.03293
 25.790     0.03132
 25.800     0.03200
 25.810     0.03202
 25.820     0.03221
 25.830     0.03256
 25.840     0.03212
 25.850     0.03189
 25.860     0.03099
 25.870     0.03061
 25.880     0.03151
 25.890     0.03159
 25.900     0.03188
 25.910     0.03094
 25.920     0.03038
 25.930     0.03123
 25.940     0.03163
 25.950     0.03018
 25.960     0.03025
 25.970     0.03038
 25.980     0.02943
 25.990     0.03121
 26.000     0.02929
 26.010     0.02883
 26.020     0.02883
 26.030     0.02928
 26.040     0.02847
 26.050     0.02780
 26.060     0.02754
 26.070     0.02723
 26.080     0.02666
 26.090     0.02726
 26.100     0.02677
 26.110     0.02599
 26.120     0.02492
 26.130     0.02525
 26.140     0.02612
 26.150     0.02485
 26.160     0.02524
 26.170     0.02427
 26.180     0.02338
 26.190     0.02427
 26.200     0.02404
 26.210     0.02292
 26.220     0.02339
 26.230     0.02352
 26.240     0.02301
 26.250     0.02356
 26.260     0.02323
 26.270     0.02364
 26.280     0.02331
 26.290     0.02197
 26.300     0.02290
 26.310     0.02386
 26.320     0.02290
 26.330     0.02279
 26.340     0.02347
 26.350     0.02349
 26.360     0.02424
 26.370     0.02367
 26.380     0.02352
 26.390     0.02407
 26.400     0.02448
 26.410     0.02480
 26.420     0.02459
 26.430     0.02582
 26.440     0.02484
 26.450     0.02559
 26.460     0.02679
 26.470     0.02661
 26.480     0.02769
 26.490     0.02736
 26.500     0.02739
 26.510     0.02737
 26.520     0.02829
 26.530     0.02801
 26.540     0.02899
 26.550     0.02910
 26.560     0.02898
 26.570     0.02953
 26.580     0.02930
 26.590     0.03009
 26.600     0.03044
 26.610     0.03082
 26.620     0.03142
 26.630     0.03132
 26.640     0.03075
 26.650     0.03183
 26.660     0.03314
 26.670     0.03213
 26.680     0.03245
 26.690     0.03308
 26.700     0.03349
 26.710     0.03292
 26.720     0.03286
 26.730     0.03369
 26.740     0.03335
 26.750     0.03314
 26.760     0.03347
 26.770     0.03348
 26.780     0.03350
 26.790     0.03358
 26.800     0.03303
 26.810     0.03398
 26.820     0.03438
 26.830     0.03367
 26.840     0.03404
 26.850     0.03331
 26.860     0.03330
 26.870     0.03217
 26.880     0.03329
 26.890     0.03398
 26.900     0.03411
 26.910     0.03231
 26.920     0.03160
 26.930     0.03175
 26.940     0.03206
 26.950     0.03223
 26.960     0.03187
 26.970     0.03268
 26.980     0.03229
 26.990     0.03121
 27.000     0.03140
 27.010     0.03227
 27.020     0.03124
 27.030     0.03099
 27.040     0.03201
 27.050     0.03088
 27.060     0.03174
 27.070     0.03149
 27.080     0.03096
 27.090     0.03097
 27.100     0.03104
 27.110     0.02985
 27.120     0.03081
 27.130     0.03063
 27.140     0.03160
 27.150     0.03056
 27.160     0.03072
 27.170     0.03032
 27.180     0.03022
 27.190     0.02883
 27.200     0.02998
 27.210     0.03008
 27.220     0.03104
 27.230     0.03101
 27.240     0.03118
 27.250     0.03169
 27.260     0.03086
 27.270     0.03182
 27.280     0.03099
 27.290     0.03144
 27.300     0.03059
 27.310     0.03028
 27.320     0.03117
 27.330     0.03128
 27.340     0.03124
 27.350     0.03183
 27.360     0.03112
 27.370     0.03155
 27.380     0.03126
 27.390     0.03140
 27.400     0.03241
 27.410     0.03110
 27.420     0.03138
 27.430     0.03166
 27.440     0.03148
 27.450     0.03182
 27.460     0.03132
 27.470     0.03006
 27.480     0.03066
 27.490     0.02971
 27.500     0.03190
 27.510     0.03025
 27.520     0.03066
 27.530     0.02977
 27.540     0.02962
 27.550     0.02937
 27.560     0.02940
 27.570     0.02919
 27.580     0.02943
 27.590     0.02904
 27.600     0.02949
 27.610     0.02898
 27.620     0.02823
 27.630     0.02910
 27.640     0.02827
 27.650     0.02842
 27.660     0.02956
 27.670     0.02797
 27.680     0.02807
 27.690     0.02748
 27.700     0.02769
 27.710     0.02827
 27.720     0.02777
 27.730     0.02767
 27.740     0.02626
 27.750     0.02797
 27.760     0.02634
 27.770     0.02725
 27.780     0.02696
 27.790     0.02694
 27.800     0.02743
 27.810     0.02763
 27.820     0.02606
 27.830     0.02702
 27.840     0.02608
 27.850     0.02597
 27.860     0.02688
 27.870     0.02548
 27.880     0.02676
 27.890     0.02522
 27.900     0.02564
 27.910     0.02657
 27.920     0.02623
 27.930     0.02531
 27.940     0.02560
 27.950     0.02653
 27.960     0.02605
 27.970     0.02609
 27.980     0.02501
 27.990     0.02508
 28.000     0.02586
 28.010     0.02544
 28.020     0.02517
 28.030     0.02496
 28.040     0.02597
 28.050     0.02621
 28.060     0.02525
 28.070     0.02515
 28.080     0.02496
 28.090     0.02484
 28.100     0.02588
 28.110     0.02445
 28.120     0.02468
 28.130     0.02464
 28.140     0.02450
 28.150     0.02412
 28.160     0.02454
 28.170     0.02397
 28.180     0.02390
 28.190     0.02494
 28.200     0.02380
 28.210     0.02380
 28.220     0.02411
 28.230     0.02363
 28.240     0.02317
 28.250     0.02405
 28.260     0.02420
 28.270     0.02307
 28.280     0.02330
 28.290     0.02365
 28.300     0.02370
 28.310     0.02347
 28.320     0.02364
 28.330     0.02282
 28.340     0.02336
 28.350     0.02321
 28.360     0.02301
 28.370     0.02385
 28.380     0.02352
 28.390     0.02298
 28.400     0.02374
 28.410     0.02348
 28.420     0.02343
 28.430     0.02353
 28.440     0.02354
 28.450     0.02343
 28.460     0.02400
 28.470     0.02319
 28.480     0.02239
 28.490     0.02286
 28.500     0.02313
 28.510     0.02335
 28.520     0.02323
 28.530     0.02419
 28.540     0.02396
 28.550     0.02327
 28.560     0.02402
 28.570     0.02474
 28.580     0.02466
 28.590     0.02410
 28.600     0.02489
 28.610     0.02405
 28.620     0.02536
 28.630     0.02447
 28.640     0.02489
 28.650     0.02461
 28.660     0.02507
 28.670     0.02521
 28.680     0.02549
 28.690     0.02574
 28.700     0.02525
 28.710     0.02607
 28.720     0.02599
 28.730     0.02581
 28.740     0.02613
 28.750     0.02627
 28.760     0.02666
 28.770     0.02787
 28.780     0.02715
 28.790     0.02690
 28.800     0.02796
 28.810     0.02847
 28.820     0.02802
 28.830     0.02852
 28.840     0.02796
 28.850     0.02831
 28.860     0.02961
 28.870     0.02902
 28.880     0.02916
 28.890     0.02953
 28.900     0.02865
 28.910     0.02985
 28.920     0.02980
 28.930     0.02982
 28.940     0.03095
 28.950     0.02977
 28.960     0.03131
 28.970     0.03082
 28.980     0.03029
 28.990     0.03162
 29.000     0.03093
 29.010     0.03135
 29.020     0.03113
 29.030     0.03163
 29.040     0.03098
 29.050     0.03090
 29.060     0.03189
 29.070     0.03140
 29.080     0.03064
 29.090     0.03067
 29.100     0.03083
 29.110     0.03074
 29.120     0.03115
 29.130     0.03113
 29.140     0.03028
 29.150     0.03113
 29.160     0.03048
 29.170     0.03082
 29.180     0.03080
 29.190     0.03042
 29.200     0.02971
 29.210     0.02925
 29.220     0.03129
 29.230     0.02933
 29.240     0.02955
 29.250     0.02936
 29.260     0.02973
 29.270     0.02942
 29.280     0.02848
 29.290     0.02834
 29.300     0.02897
 29.310     0.02816
 29.320     0.02896
 29.330     0.02805
 29.340     0.02845
 29.350     0.02733
 29.360     0.02754
 29.370     0.02661
 29.380     0.02706
 29.390     0.02656
 29.400     0.02620
 29.410     0.02636
 29.420     0.02628
 29.430     0.02522
 29.440     0.02568
 29.450     0.02503
 29.460     0.02590
 29.470     0.02542
 29.480     0.02566
 29.490     0.02491
 29.500     0.02477
 29.510     0.02494
 29.520     0.02473
 29.530     0.02445
 29.540     0.02408
 29.550     0.02460
 29.560     0.02375
 29.570     0.02468
 29.580     0.02376
 29.590     0.02406
 29.600     0.02385
 29.610     0.02382
 29.620     0.02309
 29.630     0.02319
 29.640     0.02392
 29.650     0.02453
 29.660     0.02392
 29.670     0.02276
 29.680     0.02324
 29.690     0.02359
 29.700     0.02295
 29.710     0.02324
 29.720     0.02216
 29.730     0.02351
 29.740     0.02298
 29.750     0.02334
 29.760     0.02355
 29.770     0.02263
 29.780     0.02264
 29.790     0.02385
 29.800     0.02352
 29.810     0.02382
 29.820     0.02352
 29.830     0.02302
 29.840     0.02391
 29.850     0.02345
 29.860     0.02301
 29.870     0.02277
 29.880     0.02365
 29.890     0.02322
 29.900     0.02470
 29.910     0.02337
 29.920     0.02374
 29.930     0.02386
 29.940     0.02382
 29.950     0.02437
 29.960     0.02379
 29.970     0.02416
 29.980     0.02438
 29.990     0.02438
 30.000     0.02380
 30.010     0.02451
 30.020     0.02470
 30.030     0.02445
 30.040     0.02475
 30.050     0.02429
 30.060     0.02456
 30.070     0.02433
 30.080     0.02551
 30.090     0.02502
 30.100     0.02444
 30.110     0.02420
 30.120     0.02396
 30.130     0.02454
 30.140     0.02434
 30.150     0.02509
 30.160     0.02476
 30.170     0.02409
 30.180     0.02457
 30.190     0.02444
 30.200     0.02459
 30.210     0.02516
 30.220     0.02390
 30.230     0.02323
 30.240     0.02453
 30.250     0.02471
 30.260     0.02441
 30.270     0.02387
 30.280     0.02374
 30.290     0.02389
 30.300     0.02384
 30.310     0.02370
 30.320     0.02286
 30.330     0.02320
 30.340     0.02397
 30.350     0.02301
 30.360     0.02292
 30.370     0.02300
 30.380     0.02317
 30.390     0.02279
 30.400     0.02240
 30.410     0.02270
 30.420     0.02231
 30.430     0.02257
 30.440     0.02203
 30.450     0.02230
 30.460     0.02168
 30.470     0.02060
 30.480     0.02163
 30.490     0.02098
 30.500     0.02111
 30.510     0.02225
 30.520     0.02118
 30.530     0.02066
 30.540     0.02140
 30.550     0.02103
 30.560     0.02141
 30.570     0.02126
 30.580     0.02082
 30.590     0.02051
 30.600     0.02073
 30.610     0.02056
 30.620     0.02116
 30.630     0.02083
 30.640     0.02065
 30.650     0.02163
 30.660     0.02030
 30.670     0.02061
 30.680     0.02077
 30.690     0.02026
 30.700     0.02105
 30.710     0.02099
 30.720     0.02098
 30.730     0.02085
 30.740     0.02132
 30.750     0.02105
 30.760     0.02081
 30.770     0.02101
 30.780     0.02059
 30.790     0.02172
 30.800     0.02130
 30.810     0.02145
 30.820     0.02133
 30.830     0.02168
 30.840     0.02199
 30.850     0.02228
 30.860     0.02249
 30.870     0.02201
 30.880     0.02240
 30.890     0.02264
 30.900     0.02207
 30.910     0.02288
 30.920     0.02301
 30.930     0.02287
 30.940     0.02297
 30.950     0.02302
 30.960     0.02352
 30.970     0.02369
 30.980     0.02297
 30.990     0.02441
 31.000     0.02401
 31.010     0.02271
 31.020     0.02375
 31.030     0.02459
 31.040     0.02406
 31.050     0.02389
 31.060     0.02434
 31.070     0.02490
 31.080     0.02421
 31.090     0.02433
 31.100     0.02463
 31.110     0.02540
 31.120     0.02479
 31.130     0.02502
 31.140     0.02481
 31.150     0.02486
 31.160     0.02507
 31.170     0.02514
 31.180     0.02533
 31.190     0.02557
 31.200     0.02519
 31.210     0.02528
 31.220     0.02534
 31.230     0.02573
 31.240     0.02618
 31.250     0.02464
 31.260     0.02599
 31.270     0.02512
 31.280     0.02553
 31.290     0.02517
 31.300     0.02479
 31.310     0.02524
 31.320     0.02545
 31.330     0.02508
 31.340     0.02521
 31.350     0.02509
 31.360     0.02528
 31.370     0.02506
 31.380     0.02407
 31.390     0.02492
 31.400     0.02503
 31.410     0.02492
 31.420     0.02468
 31.430     0.02459
 31.440     0.02477
 31.450     0.02540
 31.460     0.02444
 31.470     0.02533
 31.480     0.02480
 31.490     0.02443
 31.500     0.02402
 31.510     0.02554
 31.520     0.02464
 31.530     0.02390
 31.540     0.02446
 31.550     0.02412
 31.560     0.02436
 31.570     0.02463
 31.580     0.02313
 31.590     0.02375
 31.600     0.02332
 31.610     0.02386
 31.620     0.02366
 31.630     0.02361
 31.640     0.02404
 31.650     0.02341
 31.660     0.02372
 31.670     0.02325
 31.680     0.02378
 31.690     0.02269
 31.700     0.02344
 31.710     0.02367
 31.720     0.02344
 31.730     0.02275
 31.740     0.02243
 31.750     0.02236
 31.760     0.02226
 31.770     0.02233
 31.780     0.02183
 31.790     0.02202
 31.800     0.02129
 31.810     0.02178
 31.820     0.02185
 31.830     0.02167
 31.840     0.02098
 31.850     0.02105
 31.860     0.02127
 31.870     0.02107
 31.880     0.02077
 31.890     0.02107
 31.900     0.02019
 31.910     0.02061
 31.920     0.01995
 31.930     0.02065
 31.940     0.02007
 31.950     0.01918
 31.960     0.01951
 31.970     0.01935
 31.980     0.01907
 31.990     0.01886
 32.000     0.01857
 32.010     0.01945
 32.020     0.01842
 32.030     0.01859
 32.040     0.01899
 32.050     0.01894
 32.060     0.01876
 32.070     0.01874
 32.080     0.01838
 32.090     0.01809
 32.100     0.01824
 32.110     0.01893
 32.120     0.01806
 32.130     0.01788
 32.140     0.01827
 32.150     0.01791
 32.160     0.01758
 32.170     0.01798
 32.180     0.01846
 32.190     0.01797
 32.200     0.01799
 32.210     0.01766
 32.220     0.01807
 32.230     0.01869
 32.240     0.01853
 32.250     0.01814
 32.260     0.01804
 32.270     0.01841
 32.280     0.01802
 32.290     0.01842
 32.300     0.01789
 32.310     0.01943
 32.320     0.01921
 32.330     0.01904
 32.340     0.01840
 32.350     0.01914
 32.360     0.01921
 32.370     0.01920
 32.380     0.01878
 32.390     0.01927
 32.400     0.01948
 32.410     0.01938
 32.420     0.01979
 32.430     0.02024
 32.440     0.01981
 32.450     0.01980
 32.460     0.02014
 32.470     0.01939
 32.480     0.01983
 32.490     0.02038
 32.500     0.02014
 32.510     0.02055
 32.520     0.02068
 32.530     0.02044
 32.540     0.02047
 32.550     0.02158
 32.560     0.02141
 32.570     0.02131
 32.580     0.02090
 32.590     0.02101
 32.600     0.02123
 32.610     0.02213
 32.620     0.02146
 32.630     0.02178
 32.640     0.02099
 32.650     0.02137
 32.660     0.02174
 32.670     0.02159
 32.680     0.02143
 32.690     0.02112
 32.700     0.02060
 32.710     0.02142
 32.720     0.02180
 32.730     0.02021
 32.740     0.02142
 32.750     0.02112
 32.760     0.02109
 32.770     0.02092
 32.780     0.02120
 32.790     0.02042
 32.800     0.02029
 32.810     0.02025
 32.820     0.02015
 32.830     0.02030
 32.840     0.01940
 32.850     0.02022
 32.860     0.02037
 32.870     0.02047
 32.880     0.02000
 32.890     0.01993
 32.900     0.02067
 32.910     0.01945
 32.920     0.01951
 32.930     0.01945
 32.940     0.01945
 32.950     0.01874
 32.960     0.01889
 32.970     0.01903
 32.980     0.01978
 32.990     0.01930
 33.000     0.01883
 33.010     0.01978
 33.020     0.01879
 33.030     0.01834
 33.040     0.01848
 33.050     0.01938
 33.060     0.01861
 33.070     0.01909
 33.080     0.01847
 33.090     0.01789
 33.100     0.01819
 33.110     0.01858
 33.120     0.01843
 33.130     0.01923
 33.140     0.01850
 33.150     0.01871
 33.160     0.01873
 33.170     0.01834
 33.180     0.01852
 33.190     0.01892
 33.200     0.01826
 33.210     0.01929
 33.220     0.01872
 33.230     0.01877
 33.240     0.01898
 33.250     0.01809
 33.260     0.01899
 33.270     0.01829
 33.280     0.01887
 33.290     0.01921
 33.300     0.01866
 33.310     0.01907
 33.320     0.01849
 33.330     0.01865
 33.340     0.01845
 33.350     0.01920
 33.360     0.01863
 33.370     0.01958
 33.380     0.01926
 33.390     0.01927
 33.400     0.01955
 33.410     0.01940
 33.420     0.01978
 33.430     0.01925
 33.440     0.01882
 33.450     0.01852
 33.460     0.01892
 33.470     0.01911
 33.480     0.01928
 33.490     0.01913
 33.500     0.01955
 33.510     0.01935
 33.520     0.01930
 33.530     0.01957
 33.540     0.01943
 33.550     0.01872
 33.560     0.01958
 33.570     0.02019
 33.580     0.02017
 33.590     0.01927
 33.600     0.01939
 33.610     0.01946
 33.620     0.01979
 33.630     0.01981
 33.640     0.02000
 33.650     0.01923
 33.660     0.01914
 33.670     0.02029
 33.680     0.01976
 33.690     0.01951
 33.700     0.01922
 33.710     0.01950
 33.720     0.01984
 33.730     0.01968
 33.740     0.01962
 33.750     0.01882
 33.760     0.01969
 33.770     0.01968
 33.780     0.01944
 33.790     0.01898
 33.800     0.01912
 33.810     0.01870
 33.820     0.01910
 33.830     0.01935
 33.840     0.01900
 33.850     0.01895
 33.860     0.01887
 33.870     0.01851
 33.880     0.01882
 33.890     0.01849
 33.900     0.01856
 33.910     0.01798
 33.920     0.01842
 33.930     0.01809
 33.940     0.01837
 33.950     0.01774
 33.960     0.01818
 33.970     0.01823
 33.980     0.01797
 33.990     0.01794
 34.000     0.01779
 34.010     0.01809
 34.020     0.01729
 34.030     0.01692
 34.040     0.01671
 34.050     0.01734
 34.060     0.01760
 34.070     0.01746
 34.080     0.01684
 34.090     0.01717
 34.100     0.01683
 34.110     0.01757
 34.120     0.01679
 34.130     0.01648
 34.140     0.01672
 34.150     0.01669
 34.160     0.01715
 34.170     0.01696
 34.180     0.01657
 34.190     0.01685
 34.200     0.01657
 34.210     0.01682
 34.220     0.01636
 34.230     0.01666
 34.240     0.01616
 34.250     0.01691
 34.260     0.01648
 34.270     0.01661
 34.280     0.01696
 34.290     0.01640
 34.300     0.01663
 34.310     0.01647
 34.320     0.01630
 34.330     0.01696
 34.340     0.01698
 34.350     0.01645
 34.360     0.01731
 34.370     0.01673
 34.380     0.01738
 34.390     0.01628
 34.400     0.01694
 34.410     0.01646
 34.420     0.01680
 34.430     0.01649
 34.440     0.01641
 34.450     0.01706
 34.460     0.01673
 34.470     0.01707
 34.480     0.01677
 34.490     0.01715
 34.500     0.01711
 34.510     0.01734
 34.520     0.01722
 34.530     0.01691
 34.540     0.01667
 34.550     0.01658
 34.560     0.01738
 34.570     0.01656
 34.580     0.01676
 34.590     0.01684
 34.600     0.01656
 34.610     0.01696
 34.620     0.01716
 34.630     0.01674
 34.640     0.01694
 34.650     0.01562
 34.660     0.01698
 34.670     0.01645
 34.680     0.01625
 34.690     0.01660
 34.700     0.01614
 34.710     0.01578
 34.720     0.01654
 34.730     0.01655
 34.740     0.01614
 34.750     0.01653
 34.760     0.01674
 34.770     0.01655
 34.780     0.01568
 34.790     0.01564
 34.800     0.01665
 34.810     0.01584
 34.820     0.01654
 34.830     0.01597
 34.840     0.01615
 34.850     0.01609
 34.860     0.01572
 34.870     0.01603
 34.880     0.01581
 34.890     0.01563
 34.900     0.01554
 34.910     0.01588
 34.920     0.01589
 34.930     0.01569
 34.940     0.01535
 34.950     0.01547
 34.960     0.01562
 34.970     0.01527
 34.980     0.01550
 34.990     0.01507
 35.000     0.01532
 35.010     0.01534
 35.020     0.01558
 35.030     0.01555
 35.040     0.01574
 35.050     0.01586
 35.060     0.01534
 35.070     0.01534
 35.080     0.01511
 35.090     0.01496
 35.100     0.01494
 35.110     0.01558
 35.120     0.01583
 35.130     0.01559
 35.140     0.01491
 35.150     0.01530
 35.160     0.01546
 35.170     0.01491
 35.180     0.01546
 35.190     0.01537
 35.200     0.01557
 35.210     0.01572
 35.220     0.01578
 35.230     0.01535
 35.240     0.01542
 35.250     0.01514
 35.260     0.01514
 35.270     0.01539
 35.280     0.01530
 35.290     0.01603
 35.300     0.01496
 35.310     0.01534
 35.320     0.01573
 35.330     0.01516
 35.340     0.01527
 35.350     0.01547
 35.360     0.01567
 35.370     0.01524
 35.380     0.01582
 35.390     0.01597
 35.400     0.01532
 35.410     0.01534
 35.420     0.01559
 35.430     0.01505
 35.440     0.01483
 35.450     0.01472
 35.460     0.01524
 35.470     0.01549
 35.480     0.01582
 35.490     0.01500
 35.500     0.01478
 35.510     0.01526
 35.520     0.01462
 35.530     0.01503
 35.540     0.01504
 35.550     0.01519
 35.560     0.01476
 35.570     0.01520
 35.580     0.01539
 35.590     0.01498
 35.600     0.01500
 35.610     0.01501
 35.620     0.01482
 35.630     0.01470
 35.640     0.01471
 35.650     0.01475
 35.660     0.01550
 35.670     0.01437
 35.680     0.01492
 35.690     0.01502
 35.700     0.01472
 35.710     0.01474
 35.720     0.01487
 35.730     0.01524
 35.740     0.01449
 35.750     0.01519
 35.760     0.01461
 35.770     0.01460
 35.780     0.01508
 35.790     0.01487
 35.800     0.01500
 35.810     0.01520
 35.820     0.01526
 35.830     0.01484
 35.840     0.01492
 35.850     0.01492
 35.860     0.01441
 35.870     0.01473
 35.880     0.01463
 35.890     0.01506
 35.900     0.01474
 35.910     0.01514
 35.920     0.01425
 35.930     0.01489
 35.940     0.01482
 35.950     0.01508
 35.960     0.01455
 35.970     0.01444
 35.980     0.01525
 35.990     0.01485
 36.000     0.01480
 36.010     0.01503
 36.020     0.01446
 36.030     0.01453
 36.040     0.01473
 36.050     0.01496
 36.060     0.01477
 36.070     0.01477
 36.080     0.01421
 36.090     0.01445
 36.100     0.01444
 36.110     0.01471
 36.120     0.01526
 36.130     0.01460
 36.140     0.01469
 36.150     0.01444
 36.160     0.01456
 36.170     0.01444
 36.180     0.01401
 36.190     0.01406
 36.200     0.01412
 36.210     0.01407
 36.220     0.01430
 36.230     0.01439
 36.240     0.01399
 36.250     0.01423
 36.260     0.01452
 36.270     0.01419
 36.280     0.01424
 36.290     0.01403
 36.300     0.01394
 36.310     0.01428
 36.320     0.01435
 36.330     0.01358
 36.340     0.01395
 36.350     0.01361
 36.360     0.01321
 36.370     0.01386
 36.380     0.01429
 36.390     0.01363
 36.400     0.01389
 36.410     0.01367
 36.420     0.01353
 36.430     0.01343
 36.440     0.01363
 36.450     0.01332
 36.460     0.01355
 36.470     0.01279
 36.480     0.01368
 36.490     0.01317
 36.500     0.01254
 36.510     0.01312
 36.520     0.01275
 36.530     0.01268
 36.540     0.01242
 36.550     0.01259
 36.560     0.01301
 36.570     0.01291
 36.580     0.01300
 36.590     0.01255
 36.600     0.01272
 36.610     0.01257
 36.620     0.01332
 36.630     0.01254
 36.640     0.01306
 36.650     0.01324
 36.660     0.01220
 36.670     0.01308
 36.680     0.01280
 36.690     0.01320
 36.700     0.01313
 36.710     0.01255
 36.720     0.01317
 36.730     0.01249
 36.740     0.01288
 36.750     0.01258
 36.760     0.01253
 36.770     0.01341
 36.780     0.01288
 36.790     0.01319
 36.800     0.01250
 36.810     0.01334
 36.820     0.01297
 36.830     0.01313
 36.840     0.01278
 36.850     0.01374
 36.860     0.01300
 36.870     0.01329
 36.880     0.01364
 36.890     0.01270
 36.900     0.01348
 36.910     0.01287
 36.920     0.01317
 36.930     0.01316
 36.940     0.01316
 36.950     0.01278
 36.960     0.01323
 36.970     0.01331
 36.980     0.01343
 36.990     0.01339
 37.000     0.01323
 37.010     0.01271
 37.020     0.01272
 37.030     0.01290
 37.040     0.01293
 37.050     0.01268
 37.060     0.01247
 37.070     0.01230
 37.080     0.01290
 37.090     0.01268
 37.100     0.01224
 37.110     0.01231
 37.120     0.01177
 37.130     0.01252
 37.140     0.01196
 37.150     0.01204
 37.160     0.01200
 37.170     0.01191
 37.180     0.01173
 37.190     0.01150
 37.200     0.01160
 37.210     0.01201
 37.220     0.01161
 37.230     0.01165
 37.240     0.01190
 37.250     0.01121
 37.260     0.01133
 37.270     0.01172
 37.280     0.01172
 37.290     0.01111
 37.300     0.01164
 37.310     0.01105
 37.320     0.01140
 37.330     0.01166
 37.340     0.01101
 37.350     0.01128
 37.360     0.01092
 37.370     0.01153
 37.380     0.01040
 37.390     0.01126
 37.400     0.01151
 37.410     0.01085
 37.420     0.01094
 37.430     0.01141
 37.440     0.01098
 37.450     0.01081
 37.460     0.01121
 37.470     0.01090
 37.480     0.01096
 37.490     0.01138
 37.500     0.01066
 37.510     0.01089
 37.520     0.01086
 37.530     0.01064
 37.540     0.01100
 37.550     0.01075
 37.560     0.01135
 37.570     0.01097
 37.580     0.01077
 37.590     0.01089
 37.600     0.01027
 37.610     0.01078
 37.620     0.01070
 37.630     0.01103
 37.640     0.01040
 37.650     0.01101
 37.660     0.01139
 37.670     0.01052
 37.680     0.01105
 37.690     0.01057
 37.700     0.01038
 37.710     0.01084
 37.720     0.01085
 37.730     0.01054
 37.740     0.01043
 37.750     0.01080
 37.760     0.01121
 37.770     0.01105
 37.780     0.01072
 37.790     0.01069
 37.800     0.01084
 37.810     0.01066
 37.820     0.01086
 37.830     0.01105
 37.840     0.01054
 37.850     0.01099
 37.860     0.01074
 37.870     0.01100
 37.880     0.01096
 37.890     0.01099
 37.900     0.01098
 37.910     0.01129
 37.920     0.01081
 37.930     0.01109
 37.940     0.01100
 37.950     0.01046
 37.960     0.01059
 37.970     0.01106
 37.980     0.01113
 37.990     0.01077
 38.000     0.01094
 38.010     0.01118
 38.020     0.01100
 38.030     0.01154
 38.040     0.01138
 38.050     0.01100
 38.060     0.01125
 38.070     0.01106
 38.080     0.01117
 38.090     0.01084
 38.100     0.01146
 38.110     0.01115
 38.120     0.01177
 38.130     0.01104
 38.140     0.01155
 38.150     0.01126
 38.160     0.01139
 38.170     0.01128
 38.180     0.01141
 38.190     0.01136
 38.200     0.01154
 38.210     0.01136
 38.220     0.01150
 38.230     0.01138
 38.240     0.01162
 38.250     0.01129
 38.260     0.01157
 38.270     0.01173
 38.280     0.01145
 38.290     0.01112
 38.300     0.01150
 38.310     0.01149
 38.320     0.01092
 38.330     0.01147
 38.340     0.01115
 38.350     0.01104
 38.360     0.01137
 38.370     0.01177
 38.380     0.01106
 38.390     0.01185
 38.400     0.01116
 38.410     0.01145
 38.420     0.01111
 38.430     0.01108
 38.440     0.01086
 38.450     0.01124
 38.460     0.01102
 38.470     0.01094
 38.480     0.01073
 38.490     0.01066
 38.500     0.01056
 38.510     0.01048
 38.520     0.01082
 38.530     0.01100
 38.540     0.01055
 38.550     0.01066
 38.560     0.01014
 38.570     0.01040
 38.580     0.01036
 38.590     0.01029
 38.600     0.01049
 38.610     0.01030
 38.620     0.01037
 38.630     0.01036
 38.640     0.00990
 38.650     0.00984
 38.660     0.01001
 38.670     0.00961
 38.680     0.00996
 38.690     0.01020
 38.700     0.00983
 38.710     0.00981
 38.720     0.00953
 38.730     0.00979
 38.740     0.00971
 38.750     0.00964
 38.760     0.00947
 38.770     0.00948
 38.780     0.00942
 38.790     0.00927
 38.800     0.00913
 38.810     0.00947
 38.820     0.00870
 38.830     0.00927
 38.840     0.00904
 38.850     0.00913
 38.860     0.00917
 38.870     0.00881
 38.880     0.00902
 38.890     0.00939
 38.900     0.00899
 38.910     0.00886
 38.920     0.00887
 38.930     0.00877
 38.940     0.00894
 38.950     0.00886
 38.960     0.00909
 38.970     0.00908
 38.980     0.00839
 38.990     0.00837
 39.000     0.00870
 39.010     0.00867
 39.020     0.00887
 39.030     0.00835
 39.040     0.00864
 39.050     0.00856
 39.060     0.00867
 39.070     0.00855
 39.080     0.00894
 39.090     0.00844
 39.100     0.00853
 39.110     0.00855
 39.120     0.00830
 39.130     0.00814
 39.140     0.00861
 39.150     0.00879
 39.160     0.00882
 39.170     0.00861
 39.180     0.00830
 39.190     0.00800
 39.200     0.00841
 39.210     0.00826
 39.220     0.00807
 39.230     0.00827
 39.240     0.00875
 39.250     0.00843
 39.260     0.00850
 39.270     0.00832
 39.280     0.00868
 39.290     0.00850
 39.300     0.00830
 39.310     0.00844
 39.320     0.00890
 39.330     0.00802
 39.340     0.00794
 39.350     0.00868
 39.360     0.00860
 39.370     0.00894
 39.380     0.00817
 39.390     0.00835
 39.400     0.00805
 39.410     0.00819
 39.420     0.00843
 39.430     0.00810
 39.440     0.00791
 39.450     0.00837
 39.460     0.00816
 39.470     0.00842
 39.480     0.00844
 39.490     0.00776
 39.500     0.00862
 39.510     0.00806
 39.520     0.00803
 39.530     0.00815
 39.540     0.00812
 39.550     0.00789
 39.560     0.00819
 39.570     0.00804
 39.580     0.00813
 39.590     0.00801
 39.600     0.00806
 39.610     0.00836
 39.620     0.00821
 39.630     0.00796
 39.640     0.00810
 39.650     0.00834
 39.660     0.00809
 39.670     0.00803
 39.680     0.00789
 39.690     0.00804
 39.700     0.00767
 39.710     0.00771
 39.720     0.00787
 39.730     0.00738
 39.740     0.00793
 39.750     0.00838
 39.760     0.00765
 39.770     0.00788
 39.780     0.00773
 39.790     0.00786
 39.800     0.00794
 39.810     0.00727
 39.820     0.00749
 39.830     0.00766
 39.840     0.00748
 39.850     0.00776
 39.860     0.00758
 39.870     0.00797
 39.880     0.00754
 39.890     0.00777
 39.900     0.00763
 39.910     0.00760
 39.920     0.00765
 39.930     0.00764
 39.940     0.00735
 39.950     0.00801
 39.960     0.00741
 39.970     0.00717
 39.980     0.00771
 39.990     0.00708
 40.000     0.00754
 40.010     0.00752
 40.020     0.00747
 40.030     0.00769
 40.040     0.00723
 40.050     0.00788
 40.060     0.00743
 40.070     0.00746
 40.080     0.00747
 40.090     0.00730
 40.100     0.00752
 40.110     0.00772
 40.120     0.00754
 40.130     0.00763
 40.140     0.00740
 40.150     0.00701
 40.160     0.00751
 40.170     0.00759
 40.180     0.00754
 40.190     0.00736
 40.200     0.00763
 40.210     0.00710
 40.220     0.00762
 40.230     0.00734
 40.240     0.00763
 40.250     0.00784
 40.260     0.00757
 40.270     0.00737
 40.280     0.00803
 40.290     0.00759
 40.300     0.00748
 40.310     0.00760
 40.320     0.00790
 40.330     0.00780
 40.340     0.00745
 40.350     0.00786
 40.360     0.00744
 40.370     0.00734
 40.380     0.00753
 40.390     0.00741
 40.400     0.00741
 40.410     0.00781
 40.420     0.00729
 40.430     0.00739
 40.440     0.00772
 40.450     0.00778
 40.460     0.00758
 40.470     0.00741
 40.480     0.00777
 40.490     0.00775
 40.500     0.00726
 40.510     0.00742
 40.520     0.00789
 40.530     0.00720
 40.540     0.00760
 40.550     0.00731
 40.560     0.00745
 40.570     0.00728
 40.580     0.00740
 40.590     0.00708
 40.600     0.00727
 40.610     0.00749
 40.620     0.00759
 40.630     0.00725
 40.640     0.00718
 40.650     0.00715
 40.660     0.00743
 40.670     0.00713
 40.680     0.00704
 40.690     0.00749
 40.700     0.00716
 40.710     0.00667
 40.720     0.00684
 40.730     0.00696
 40.740     0.00682
 40.750     0.00670
 40.760     0.00717
 40.770     0.00708
 40.780     0.00728
 40.790     0.00709
 40.800     0.00668
 40.810     0.00695
 40.820     0.00660
 40.830     0.00676
 40.840     0.00652
 40.850     0.00665
 40.860     0.00653
 40.870     0.00676
 40.880     0.00671
 40.890     0.00661
 40.900     0.00644
 40.910     0.00650
 40.920     0.00658
 40.930     0.00615
 40.940     0.00640
 40.950     0.00655
 40.960     0.00647
 40.970     0.00627
 40.980     0.00613
 40.990     0.00632
 41.000     0.00629
 41.010     0.00619
 41.020     0.00626
 41.030     0.00578
 41.040     0.00594
 41.050     0.00575
 41.060     0.00584
 41.070     0.00613
 41.080     0.00586
 41.090     0.00589
 41.100     0.00564
 41.110     0.00607
 41.120     0.00586
 41.130     0.00544
 41.140     0.00574
 41.150     0.00550
 41.160     0.00567
 41.170     0.00531
 41.180     0.00568
 41.190     0.00562
 41.200     0.00573
 41.210     0.00560
 41.220     0.00594
 41.230     0.00561
 41.240     0.00572
 41.250     0.00553
 41.260     0.00527
 41.270     0.00541
 41.280     0.00561
 41.290     0.00555
 41.300     0.00533
 41.310     0.00550
 41.320     0.00542
 41.330     0.00538
 41.340     0.00526
 41.350     0.00541
 41.360     0.00499
 41.370     0.00530
 41.380     0.00521
 41.390     0.00521
 41.400     0.00532
 41.410     0.00512
 41.420     0.00524
 41.430     0.00508
 41.440     0.00476
 41.450     0.00510
 41.460     0.00525
 41.470     0.00529
 41.480     0.00492
 41.490     0.00501
 41.500     0.00513
 41.510     0.00503
 41.520     0.00503
 41.530     0.00512
 41.540     0.00530
 41.550     0.00513
 41.560     0.00502
 41.570     0.00482
 41.580     0.00485
 41.590     0.00503
 41.600     0.00492
 41.610     0.00493
 41.620     0.00526
 41.630     0.00494
 41.640     0.00495
 41.650     0.00474
 41.660     0.00486
 41.670     0.00491
 41.680     0.00488
 41.690     0.00501
 41.700     0.00462
 41.710     0.00490
 41.720     0.00536
 41.730     0.00482
 41.740     0.00456
 41.750     0.00491
 41.760     0.00484
 41.770     0.00481
 41.780     0.00464
 41.790     0.00510
 41.800     0.00520
 41.810     0.00482
 41.820     0.00493
 41.830     0.00520
 41.840     0.00498
 41.850     0.00489
 41.860     0.00489
 41.870     0.00520
 41.880     0.00485
 41.890     0.00493
 41.900     0.00473
 41.910     0.00502
 41.920     0.00498
 41.930     0.00492
 41.940     0.00473
 41.950     0.00468
 41.960     0.00490
 41.970     0.00515
 41.980     0.00495
 41.990     0.00480
 42.000     0.00486
 42.010     0.00505
 42.020     0.00474
 42.030     0.00490
 42.040     0.00458
 42.050     0.00484
 42.060     0.00486
 42.070     0.00485
 42.080     0.00487
 42.090     0.00464
 42.100     0.00495
 42.110     0.00471
 42.120     0.00490
 42.130     0.00525
 42.140     0.00469
 42.150     0.00482
 42.160     0.00474
 42.170     0.00490
 42.180     0.00485
 42.190     0.00482
 42.200     0.00490
 42.210     0.00493
 42.220     0.00469
 42.230     0.00502
 42.240     0.00465
 42.250     0.00481
 42.260     0.00478
 42.270     0.00465
 42.280     0.00467
 42.290     0.00480
 42.300     0.00505
 42.310     0.00472
 42.320     0.00422
 42.330     0.00482
 42.340     0.00466
 42.350     0.00463
 42.360     0.00451
 42.370     0.00452
 42.380     0.00443
 42.390     0.00469
 42.400     0.00462
 42.410     0.00489
 42.420     0.00449
 42.430     0.00451
 42.440     0.00469
 42.450     0.00438
 42.460     0.00464
 42.470     0.00440
 42.480     0.00454
 42.490     0.00468
 42.500     0.00446
 42.510     0.00445
 42.520     0.00453
 42.530     0.00432
 42.540     0.00427
 42.550     0.00416
 42.560     0.00409
 42.570     0.00450
 42.580     0.00447
 42.590     0.00421
 42.600     0.00434
 42.610     0.00425
 42.620     0.00441
 42.630     0.00440
 42.640     0.00451
 42.650     0.00396
 42.660     0.00430
 42.670     0.00432
 42.680     0.00417
 42.690     0.00421
 42.700     0.00397
 42.710     0.00417
 42.720     0.00420
 42.730     0.00397
 42.740     0.00417
 42.750     0.00416
 42.760     0.00405
 42.770     0.00394
 42.780     0.00394
 42.790     0.00395
 42.800     0.00406
 42.810     0.00380
 42.820     0.00430
 42.830     0.00405
 42.840     0.00397
 42.850     0.00389
 42.860     0.00407
 42.870     0.00363
 42.880     0.00402
 42.890     0.00393
 42.900     0.00403
 42.910     0.00391
 42.920     0.00378
 42.930     0.00369
 42.940     0.00357
 42.950     0.00374
 42.960     0.00381
 42.970     0.00383
 42.980     0.00364
 42.990     0.00377
 43.000     0.00362
 43.010     0.00373
 43.020     0.00357
 43.030     0.00357
 43.040     0.00374
 43.050     0.00364
 43.060     0.00372
 43.070     0.00349
 43.080     0.00359
 43.090     0.00340
 43.100     0.00371
 43.110     0.00336
 43.120     0.00372
 43.130     0.00337
 43.140     0.00309
 43.150     0.00331
 43.160     0.00316
 43.170     0.00315
 43.180     0.00334
 43.190     0.00328
 43.200     0.00336
 43.210     0.00348
 43.220     0.00351
 43.230     0.00316
 43.240     0.00332
 43.250     0.00323
 43.260     0.00318
 43.270     0.00329
 43.280     0.00306
 43.290     0.00299
 43.300     0.00319
 43.310     0.00322
 43.320     0.00283
 43.330     0.00314
 43.340     0.00312
 43.350     0.00313
 43.360     0.00310
 43.370     0.00306
 43.380     0.00300
 43.390     0.00293
 43.400     0.00277
 43.410     0.00285
 43.420     0.00324
 43.430     0.00292
 43.440     0.00294
 43.450     0.00296
 43.460     0.00271
 43.470     0.00301
 43.480     0.00283
 43.490     0.00296
 43.500     0.00282
 43.510     0.00296
 43.520     0.00267
 43.530     0.00282
 43.540     0.00266
 43.550     0.00272
 43.560     0.00295
 43.570     0.00300
 43.580     0.00268
 43.590     0.00292
 43.600     0.00261
 43.610     0.00259
 43.620     0.00280
 43.630     0.00274
 43.640     0.00303
 43.650     0.00261
 43.660     0.00272
 43.670     0.00261
 43.680     0.00249
 43.690     0.00266
 43.700     0.00272
 43.710     0.00263
 43.720     0.00253
 43.730     0.00264
 43.740     0.00273
 43.750     0.00299
 43.760     0.00285
 43.770     0.00272
 43.780     0.00272
 43.790     0.00256
 43.800     0.00293
 43.810     0.00279
 43.820     0.00263
 43.830     0.00267
 43.840     0.00275
 43.850     0.00273
 43.860     0.00257
 43.870     0.00273
 43.880     0.00271
 43.890     0.00256
 43.900     0.00255
 43.910     0.00257
 43.920     0.00271
 43.930     0.00269
 43.940     0.00269
 43.950     0.00269
 43.960     0.00251
 43.970     0.00257
 43.980     0.00251
 43.990     0.00255
 44.000     0.00269
 44.010     0.00260
 44.020     0.00248
 44.030     0.00249
 44.040     0.00246
 44.050     0.00243
 44.060     0.00245
 44.070     0.00249
 44.080     0.00251
 44.090     0.00243
 44.100     0.00250
 44.110     0.00240
 44.120     0.00253
 44.130     0.00261
 44.140     0.00239
 44.150     0.00262
 44.160     0.00258
 44.170     0.00242
 44.180     0.00246
 44.190     0.00233
 44.200     0.00240
 44.210     0.00222
 44.220     0.00235
 44.230     0.00231
 44.240     0.00232
 44.250     0.00233
 44.260     0.00233
 44.270     0.00226
 44.280     0.00225
 44.290     0.00239
 44.300     0.00208
 44.310     0.00229
 44.320     0.00234
 44.330     0.00230
 44.340     0.00227
 44.350     0.00218
 44.360     0.00235
 44.370     0.00216
 44.380     0.00225
 44.390     0.00216
 44.400     0.00225
 44.410     0.00207
 44.420     0.00214
 44.430     0.00220
 44.440     0.00217
 44.450     0.00199
 44.460     0.00224
 44.470     0.00218
 44.480     0.00199
 44.490     0.00213
 44.500     0.00212
 44.510     0.00209
 44.520     0.00197
 44.530     0.00214
 44.540     0.00186
 44.550     0.00195
 44.560     0.00208
 44.570     0.00210
 44.580     0.00205
 44.590     0.00210
 44.600     0.00193
 44.610     0.00188
 44.620     0.00196
 44.630     0.00200
 44.640     0.00191
 44.650     0.00200
 44.660     0.00194
 44.670     0.00195
 44.680     0.00201
 44.690     0.00185
 44.700     0.00190
 44.710     0.00190
 44.720     0.00189
 44.730     0.00169
 44.740     0.00187
 44.750     0.00196
 44.760     0.00176
 44.770     0.00184
 44.780     0.00183
 44.790     0.00181
 44.800     0.00184
 44.810     0.00176
 44.820     0.00165
 44.830     0.00178
 44.840     0.00166
 44.850     0.00172
 44.860     0.00185
 44.870     0.00199
 44.880     0.00202
 44.890     0.00196
 44.900     0.00180
 44.910     0.00179
 44.920     0.00176
 44.930     0.00169
 44.940     0.00163
 44.950     0.00183
 44.960     0.00172
 44.970     0.00171
 44.980     0.00162
 44.990     0.00160
 45.000     0.00201
 45.010     0.00173
 45.020     0.00172
 45.030     0.00177
 45.040     0.00157
 45.050     0.00167
 45.060     0.00146
 45.070     0.00164
 45.080     0.00160
 45.090     0.00168
 45.100     0.00153
 45.110     0.00154
 45.120     0.00157
 45.130     0.00156
 45.140     0.00147
 45.150     0.00143
 45.160     0.00153
 45.170     0.00143
 45.180     0.00145
 45.190     0.00151
 45.200     0.00151
 45.210     0.00125
 45.220     0.00157
 45.230     0.00140
 45.240     0.00141
 45.250     0.00146
 45.260     0.00146
 45.270     0.00141
 45.280     0.00142
 45.290     0.00135
 45.300     0.00140
 45.310     0.00133
 45.320     0.00138
 45.330     0.00147
 45.340     0.00121
 45.350     0.00129
 45.360     0.00137
 45.370     0.00137
 45.380     0.00128
 45.390     0.00136
 45.400     0.00133
 45.410     0.00134
 45.420     0.00134
 45.430     0.00129
 45.440     0.00125
 45.450     0.00125
 45.460     0.00134
 45.470     0.00127
 45.480     0.00116
 45.490     0.00126
 45.500     0.00126
 45.510     0.00126
 45.520     0.00130
 45.530     0.00114
 45.540     0.00105
 45.550     0.00124
 45.560     0.00118
 45.570     0.00100
 45.580     0.00114
 45.590     0.00123
 45.600     0.00106
 45.610     0.00123
 45.620     0.00119
 45.630     0.00121
 45.640     0.00109
 45.650     0.00105
 45.660     0.00098
 45.670     0.00106
 45.680     0.00117
 45.690     0.00112
 45.700     0.00110
 45.710     0.00103
 45.720     0.00090
 45.730     0.00100
 45.740     0.00095
 45.750     0.00102
 45.760     0.00098
 45.770     0.00108
 45.780     0.00104
 45.790     0.00110
 45.800     0.00102
 45.810     0.00097
 45.820     0.00087
 45.830     0.00106
 45.840     0.00110
 45.850     0.00100
 45.860     0.00100
 45.870     0.00089
 45.880     0.00106
 45.890     0.00083
 45.900     0.00110
 45.910     0.00094
 45.920     0.00098
 45.930     0.00080
 45.940     0.00099
 45.950     0.00086
 45.960     0.00105
 45.970     0.00091
 45.980     0.00088
 45.990     0.00092
 46.000     0.00082
 46.010     0.00096
 46.020     0.00090
 46.030     0.00079
 46.040     0.00084
 46.050     0.00088
 46.060     0.00084
 46.070     0.00080
 46.080     0.00092
 46.090     0.00085
 46.100     0.00090
 46.110     0.00086
 46.120     0.00080
 46.130     0.00076
 46.140     0.00083
 46.150     0.00083
 46.160     0.00080
 46.170     0.00075
 46.180     0.00092
 46.190     0.00077
 46.200     0.00078
 46.210     0.00089
 46.220     0.00084
 46.230     0.00075
 46.240     0.00071
 46.250     0.00082
 46.260     0.00069
 46.270     0.00071
 46.280     0.00062
 46.290     0.00075
 46.300     0.00076
 46.310     0.00067
 46.320     0.00074
 46.330     0.00055
 46.340     0.00070
 46.350     0.00070
 46.360     0.00075
 46.370     0.00069
 46.380     0.00066
 46.390     0.00066
 46.400     0.00074
 46.410     0.00064
 46.420     0.00062
 46.430     0.00060
 46.440     0.00061
 46.450     0.00057
 46.460     0.00058
 46.470     0.00062
 46.480     0.00056
 46.490     0.00062
 46.500     0.00056
 46.510     0.00063
 46.520     0.00056
 46.530     0.00057
 46.540     0.00047
 46.550     0.00065
 46.560     0.00054
 46.570     0.00055
 46.580     0.00059
 46.590     0.00047
 46.600     0.00057
 46.610     0.00050
 46.620     0.00053
 46.630     0.00050
 46.640     0.00054
 46.650     0.00050
 46.660     0.00052
 46.670     0.00064
 46.680     0.00049
 46.690     0.00052
 46.700     0.00039
 46.710     0.00038
 46.720     0.00036
 46.730     0.00044
 46.740     0.00049
 46.750     0.00037
 46.760     0.00041
 46.770     0.00048
 46.780     0.00049
 46.790     0.00038
 46.800     0.00041
 46.810     0.00035
 46.820     0.00045
 46.830     0.00037
 46.840     0.00042
 46.850     0.00039
 46.860     0.00047
 46.870     0.00039
 46.880     0.00036
 46.890     0.00042
 46.900     0.00037
 46.910     0.00039
 46.920     0.00031
 46.930     0.00036
 46.940     0.00037
 46.950     0.00035
 46.960     0.00032
 46.970     0.00040
 46.980     0.00041
 46.990     0.00039
 47.000     0.00040
 47.010     0.00027
 47.020     0.00040
 47.030     0.00032
 47.040     0.00039
 47.050     0.00031
 47.060     0.00031
 47.070     0.00029
 47.080     0.00034
 47.090     0.00031
 47.100     0.00032
 47.110     0.00030
 47.120     0.00033
 47.130     0.00029
 47.140     0.00027
 47.150     0.00025
 47.160     0.00025
 47.170     0.00028
 47.180     0.00031
 47.190     0.00029
 47.200     0.00026
 47.210     0.00028
 47.220     0.00029
 47.230     0.00027
 47.240     0.00024
 47.250     0.00024
 47.260     0.00020
 47.270     0.00022
 47.280     0.00020
 47.290     0.00028
 47.300     0.00020
 47.310     0.00021
 47.320     0.00019
 47.330     0.00026
 47.340     0.00030
 47.350     0.00024
 47.360     0.00015
 47.370     0.00017
 47.380     0.00026
 47.390     0.00021
 47.400     0.00020
 47.410     0.00022
 47.420     0.00019
 47.430     0.00019
 47.440     0.00020
 47.450     0.00019
 47.460     0.00015
 47.470     0.00018
 47.480     0.00012
 47.490     0.00018
 47.500     0.00018
 47.510     0.00015
 47.520     0.00017
 47.530     0.00015
 47.540     0.00013
 47.550     0.00013
 47.560     0.00017
 47.570     0.00011
 47.580     0.00012
 47.590     0.00013
 47.600     0.00015
 47.610     0.00017
 47.620     0.00014
 47.630     0.00009
 47.640     0.00017
 47.650     0.00015
 47.660     0.00015
 47.670     0.00012
 47.680     0.00013
 47.690     0.00011
 47.700     0.00015
 47.710     0.00011
 47.720     0.00012
 47.730     0.00009
 47.740     0.00012
 47.750     0.00009
 47.760     0.00010
 47.770     0.00012
 47.780     0.00009
 47.790     0.00006
 47.800     0.00007
 47.810     0.00005
 47.820     0.00010
 47.830     0.00006
 47.840     0.00007
 47.850     0.00008
 47.860     0.00011
 47.870     0.00007
 47.880     0.00009
 47.890     0.00005
 47.900     0.00006
 47.910     0.00007
 47.920     0.00005
 47.930     0.00007
 47.940     0.00008
 47.950     0.00005
 47.960     0.00004
 47.970     0.00005
 47.980     0.00005
 47.990     0.00001
 48.000     0.00004
 48.010     0.00007
 48.020     0.00005
 48.030     0.00004
 48.040     0.00004
 48.050     0.00001
 48.060     0.00006
 48.070     0.00008
 48.080     0.00001
 48.090     0.00004
 48.100     0.00002
 48.110     0.00005
 48.120     0.00005
 48.130     0.00003
 48.140     0.00002
 48.150     0.00003
 48.160     0.00003
 48.170     0.00003
 48.180     0.00004
 48.190     0.00002
 48.200     0.00004
 48.210     0.00001
 48.220     0.00003
 48.230     0.00002
 48.240     0.00003
 48.250     0.00002
 48.260     0.00003
 48.270     0.00004
 48.280     0.00001
 48.290     0.00001
 48.300     0.00000
 48.310     0.00003
 48.320     0.00004
 48.330     0.00002
 48.340     0.00001
 48.350     0.00003
 48.360     0.00003
 48.370     0.00003
 48.380     0.00001
 48.390     0.00003
 48.400     0.00003
 48.410     0.00001
 48.420     0.00002
 48.430     0.00003
 48.440     0.00001
 48.450     0.00002
 48.460     0.00002
 48.470     0.00000
 48.480     0.00000
 48.490     0.00000
 48.500     0.00001
 48.510     0.00002
 48.520     0.00001
 48.530     0.00000
 48.540     0.00003
 48.550     0.00002
 48.560     0.00000
 48.570     0.00001
 48.580     0.00002
 48.590     0.00000
 48.600     0.00001
 48.610     0.00000
 48.620     0.00001
 48.630     0.00001
 48.640     0.00001
 48.650     0.00000
 48.660     0.00000
 48.670     0.00000
 48.680     0.00000
 48.690     0.00001
 48.700     0.00001
 48.710     0.00000
 48.720     0.00000
 48.730     0.00001
 48.740     0.00001
 48.750     0.00002
 48.760     0.00000
 48.770     0.00001
 48.780     0.00000
 48.790     0.00000
 48.800     0.00000
 48.810     0.00001
 48.820     0.00001
 48.830     0.00001
 48.840     0.00000
 48.850     0.00000
 48.860     0.00001
 48.870     0.00000
 48.880     0.00000
 48.890     0.00000
 48.900     0.00001
 48.910     0.00000
 48.920     0.00001
 48.930     0.00001
 48.940     0.00002
 48.950     0.00001
 48.960     0.00000
 48.970     0.00000
 48.980     0.00000
 48.990     0.00001
 49.000     0.00002
 49.010     0.00001
 49.020     0.00001
 49.030     0.00000
 49.040     0.00000
 49.050     0.00000
 49.060     0.00000
 49.070     0.00000
 49.080     0.00000
 49.090     0.00001
 49.100     0.00001
 49.110     0.00000
 49.120     0.00000
 49.130     0.00000
 49.140     0.00001
 49.150     0.00000
 49.160     0.00001
 49.170     0.00000
 49.180     0.00001
 49.190     0.00000
 49.200     0.00001
 49.210     0.00000
 49.220     0.00000
 49.230     0.00000
 49.240     0.00001
 49.250     0.00000
 49.260     0.00000
 49.270     0.00000
 49.280     0.00001
 49.290     0.00000
 49.300     0.00000
 49.310     0.00001
 49.320     0.00000
 49.330     0.00000
 49.340     0.00000
 49.350     0.00000
 49.360     0.00000
 49.370     0.00001
 49.380     0.00000
 49.390     0.00001
 49.400     0.00000
 49.410     0.00000
 49.420     0.00000
 49.430     0.00001
 49.440     0.00000
 49.450     0.00000
 49.460     0.00000
 49.470     0.00000
 49.480     0.00000
 49.490     0.00000
 49.500     0.00000
 49.510     0.00000
 49.520     0.00000
 49.530     0.00000
 49.540     0.00000
 49.550     0.00000
 49.560     0.00000
 49.570     0.00000
 49.580     0.00000
 49.590     0.00000
 49.600     0.00000
 49.610     0.00000
 49.620     0.00000
 49.630     0.00000
 49.640     0.00000
 49.650     0.00000
 49.660     0.00000
 49.670     0.00000
 49.680     0.00000
 49.690     0.00000
 49.700     0.00000
 49.710     0.00000
 49.720     0.00000
 49.730     0.00000
 49.740     0.00000
 49.750     0.00000
 49.760     0.00000
 49.770     0.00000
 49.780     0.00000
 49.790     0.00000
 49.800     0.00000
 49.810     0.00000
 49.820     0.00000
 49.830     0.00000
 49.840     0.00000
 49.850     0.00000
 49.860     0.00000
 49.870     0.00000
 49.880     0.00000
 49.890     0.00000
 49.900     0.00000
 49.910     0.00000
 49.920     0.00000
 49.930     0.00000
 49.940     0.00000
 49.950     0.00000
 49.960     0.00000
 49.970     0.00000
 49.980     0.00000
 49.990     0.00000
 50.000     0.00000
 50.010     0.00000
 50.020     0.00000
 50.030     0.00000
 50.040     0.00000
 50.050     0.00000
 50.060     0.00000
 50.070     0.00000
 50.080     0.00000
 50.090     0.00000
 50.100     0.00000
 50.110     0.00000
 50.120     0.00000
 50.130     0.00000
 50.140     0.00000
 50.150     0.00000
 50.160     0.00000
 50.170     0.00000
 50.180     0.00000
 50.190     0.00000
 50.200     0.00000
 50.210     0.00000
 50.220     0.00000
 50.230     0.00000
 50.240     0.00000
 50.250     0.00000
 50.260     0.00000
 50.270     0.00000
 50.280     0.00000
 50.290     0.00000
 50.300     0.00000
 50.310     0.00000
 50.320     0.00000
 50.330     0.00000
 50.340     0.00000
 50.350     0.00000
 50.360     0.00000
 50.370     0.00000
 50.380     0.00000
 50.390     0.00000
 50.400     0.00000
 50.410     0.00000
 50.420     0.00000
 50.430     0.00000
 50.440     0.00000
 50.450     0.00000
 50.460     0.00000
 50.470     0.00000
 50.480     0.00000
 50.490     0.00000
 50.500     0.00000
 50.510     0.00000
 50.520     0.00000
 50.530     0.00000
 50.540     0.00000
 50.550     0.00000
 50.560     0.00000
 50.570     0.00000
 50.580     0.00000
 50.590     0.00000
 50.600     0.00000
 50.610     0.00000
 50.620     0.00000
 50.630     0.00000
 50.640     0.00000
 50.650     0.00000
 50.660     0.00000
 50.670     0.00000
 50.680     0.00000
 50.690     0.00000
 50.700     0.00000
 50.710     0.00000
 50.720     0.00000
 50.730     0.00000
 50.740     0.00000
 50.750     0.00000
 50.760     0.00000
 50.770     0.00000
 50.780     0.00000
 50.790     0.00000
 50.800     0.00000
 50.810     0.00000
