  #r(a)       PDF
  0.010     0.00000
  0.020     0.00000
  0.030     0.00000
  0.040     0.00000
  0.050     0.00000
  0.060     0.00000
  0.070     0.00000
  0.080     0.00000
  0.090     0.00000
  0.100     0.00000
  0.110     0.00000
  0.120     0.00000
  0.130     0.00000
  0.140     0.00000
  0.150     0.00000
  0.160     0.00000
  0.170     0.00000
  0.180     0.00000
  0.190     0.00000
  0.200     0.00000
  0.210     0.00000
  0.220     0.00000
  0.230     0.00000
  0.240     0.00000
  0.250     0.00000
  0.260     0.00000
  0.270     0.00000
  0.280     0.00000
  0.290     0.00000
  0.300     0.00000
  0.310     0.00000
  0.320     0.00000
  0.330     0.00000
  0.340     0.00000
  0.350     0.00000
  0.360     0.00000
  0.370     0.00000
  0.380     0.00000
  0.390     0.00000
  0.400     0.00000
  0.410     0.00000
  0.420     0.00000
  0.430     0.00000
  0.440     0.00000
  0.450     0.00000
  0.460     0.00000
  0.470     0.00000
  0.480     0.00000
  0.490     0.00000
  0.500     0.00000
  0.510     0.00000
  0.520     0.00000
  0.530     0.00000
  0.540     0.00000
  0.550     0.00000
  0.560     0.00000
  0.570     0.00000
  0.580     0.00000
  0.590     0.00000
  0.600     0.00000
  0.610     0.00000
  0.620     0.00000
  0.630     0.00000
  0.640     0.00000
  0.650     0.00000
  0.660     0.00000
  0.670     0.00000
  0.680     0.00000
  0.690     0.00000
  0.700     0.00000
  0.710     0.00000
  0.720     0.00000
  0.730     0.00000
  0.740     0.00000
  0.750     0.00000
  0.760     0.00000
  0.770     0.00000
  0.780     0.00000
  0.790     0.00000
  0.800     0.00000
  0.810     0.00000
  0.820     0.00000
  0.830     0.00000
  0.840     0.00000
  0.850     0.00000
  0.860     0.00000
  0.870     0.00000
  0.880     0.00000
  0.890     0.00000
  0.900     0.00000
  0.910     0.00000
  0.920     0.00000
  0.930     0.00000
  0.940     0.00000
  0.950     0.00000
  0.960     0.00000
  0.970     0.00000
  0.980     0.00000
  0.990     0.00000
  1.000     0.00000
  1.010     0.00000
  1.020     0.00000
  1.030     0.00000
  1.040     0.00000
  1.050     0.00000
  1.060     0.00000
  1.070     0.00000
  1.080     0.00000
  1.090     0.00000
  1.100     0.00000
  1.110     0.00000
  1.120     0.00000
  1.130     0.00000
  1.140     0.00000
  1.150     0.00000
  1.160     0.00000
  1.170     0.00000
  1.180     0.00000
  1.190     0.00000
  1.200     0.00000
  1.210     0.00000
  1.220     0.00000
  1.230     0.00000
  1.240     0.00000
  1.250     0.00000
  1.260     0.00000
  1.270     0.00000
  1.280     0.00000
  1.290     0.00000
  1.300     0.00000
  1.310     0.00000
  1.320     0.00000
  1.330     0.00000
  1.340     0.00000
  1.350     0.00000
  1.360     0.00000
  1.370     0.00000
  1.380     0.00000
  1.390     0.00000
  1.400     0.00000
  1.410     0.00000
  1.420     0.00000
  1.430     0.00000
  1.440     0.00000
  1.450     0.00000
  1.460     0.00000
  1.470     0.00000
  1.480     0.00000
  1.490     0.00000
  1.500     0.00000
  1.510     0.00000
  1.520     0.00000
  1.530     0.00000
  1.540     0.00000
  1.550     0.00000
  1.560     0.00000
  1.570     0.00000
  1.580     0.00000
  1.590     0.00000
  1.600     0.00000
  1.610     0.00000
  1.620     0.00000
  1.630     0.00000
  1.640     0.00000
  1.650     0.00000
  1.660     0.00000
  1.670     0.00000
  1.680     0.00000
  1.690     0.00000
  1.700     0.00000
  1.710     0.00000
  1.720     0.00000
  1.730     0.00000
  1.740     0.00000
  1.750     0.00000
  1.760     0.00000
  1.770     0.00000
  1.780     0.00000
  1.790     0.00000
  1.800     0.00000
  1.810     0.00000
  1.820     0.00000
  1.830     0.00000
  1.840     0.00000
  1.850     0.00000
  1.860     0.00000
  1.870     0.00000
  1.880     0.00000
  1.890     0.00000
  1.900     0.00000
  1.910     0.00000
  1.920     0.00000
  1.930     0.00000
  1.940     0.00000
  1.950     0.00000
  1.960     0.00000
  1.970     0.00000
  1.980     0.00000
  1.990     0.00000
  2.000     0.00000
  2.010     0.00000
  2.020     0.00000
  2.030     0.00000
  2.040     0.00000
  2.050     0.00000
  2.060     0.00000
  2.070     0.00000
  2.080     0.00000
  2.090     0.00000
  2.100     0.00000
  2.110     0.00000
  2.120     0.00000
  2.130     0.00000
  2.140     0.00000
  2.150     0.00000
  2.160     0.00000
  2.170     0.00000
  2.180     0.00000
  2.190     0.00000
  2.200     0.00000
  2.210     0.00015
  2.220     0.00014
  2.230     0.00000
  2.240     0.00000
  2.250     0.00000
  2.260     0.00014
  2.270     0.00000
  2.280     0.00014
  2.290     0.00028
  2.300     0.00042
  2.310     0.00000
  2.320     0.00041
  2.330     0.00027
  2.340     0.00055
  2.350     0.00055
  2.360     0.00054
  2.370     0.00081
  2.380     0.00162
  2.390     0.00201
  2.400     0.00187
  2.410     0.00266
  2.420     0.00345
  2.430     0.00488
  2.440     0.00605
  2.450     0.00681
  2.460     0.00782
  2.470     0.00935
  2.480     0.01138
  2.490     0.01469
  2.500     0.01976
  2.510     0.01699
  2.520     0.01934
  2.530     0.02142
  2.540     0.02753
  2.550     0.02956
  2.560     0.03470
  2.570     0.03707
  2.580     0.03829
  2.590     0.04074
  2.600     0.04490
  2.610     0.04743
  2.620     0.04848
  2.630     0.05244
  2.640     0.05637
  2.650     0.05761
  2.660     0.05969
  2.670     0.06367
  2.680     0.05817
  2.690     0.06069
  2.700     0.06426
  2.710     0.05741
  2.720     0.05801
  2.730     0.05780
  2.740     0.05888
  2.750     0.05610
  2.760     0.05415
  2.770     0.05349
  2.780     0.04649
  2.790     0.04576
  2.800     0.04444
  2.810     0.04178
  2.820     0.04333
  2.830     0.03695
  2.840     0.03366
  2.850     0.03163
  2.860     0.02994
  2.870     0.02961
  2.880     0.02550
  2.890     0.02231
  2.900     0.01980
  2.910     0.02083
  2.920     0.01900
  2.930     0.01773
  2.940     0.01407
  2.950     0.01446
  2.960     0.01301
  2.970     0.01296
  2.980     0.01109
  2.990     0.01008
  3.000     0.00898
  3.010     0.00693
  3.020     0.00669
  3.030     0.00646
  3.040     0.00528
  3.050     0.00494
  3.060     0.00461
  3.070     0.00481
  3.080     0.00510
  3.090     0.00415
  3.100     0.00362
  3.110     0.00144
  3.120     0.00267
  3.130     0.00256
  3.140     0.00296
  3.150     0.00193
  3.160     0.00203
  3.170     0.00152
  3.180     0.00182
  3.190     0.00211
  3.200     0.00160
  3.210     0.00170
  3.220     0.00149
  3.230     0.00199
  3.240     0.00188
  3.250     0.00118
  3.260     0.00108
  3.270     0.00216
  3.280     0.00088
  3.290     0.00166
  3.300     0.00146
  3.310     0.00165
  3.320     0.00135
  3.330     0.00125
  3.340     0.00115
  3.350     0.00134
  3.360     0.00210
  3.370     0.00162
  3.380     0.00209
  3.390     0.00180
  3.400     0.00189
  3.410     0.00216
  3.420     0.00263
  3.430     0.00243
  3.440     0.00187
  3.450     0.00316
  3.460     0.00222
  3.470     0.00259
  3.480     0.00267
  3.490     0.00257
  3.500     0.00348
  3.510     0.00411
  3.520     0.00428
  3.530     0.00300
  3.540     0.00290
  3.550     0.00389
  3.560     0.00342
  3.570     0.00503
  3.580     0.00519
  3.590     0.00438
  3.600     0.00579
  3.610     0.00569
  3.620     0.00567
  3.630     0.00618
  3.640     0.00749
  3.650     0.00852
  3.660     0.00771
  3.670     0.00909
  3.680     0.01063
  3.690     0.01008
  3.700     0.01075
  3.710     0.01115
  3.720     0.01138
  3.730     0.01058
  3.740     0.01106
  3.750     0.01223
  3.760     0.01339
  3.770     0.01285
  3.780     0.01417
  3.790     0.01523
  3.800     0.01393
  3.810     0.01238
  3.820     0.01402
  3.830     0.01692
  3.840     0.01495
  3.850     0.01408
  3.860     0.01396
  3.870     0.01649
  3.880     0.01521
  3.890     0.01484
  3.900     0.01414
  3.910     0.01509
  3.920     0.01317
  3.930     0.01289
  3.940     0.01384
  3.950     0.01267
  3.960     0.01247
  3.970     0.01091
  3.980     0.01193
  3.990     0.01085
  4.000     0.01059
  4.010     0.01016
  4.020     0.00973
  4.030     0.00923
  4.040     0.00865
  4.050     0.00895
  4.060     0.00822
  4.070     0.01017
  4.080     0.00739
  4.090     0.00596
  4.100     0.00743
  4.110     0.00655
  4.120     0.00584
  4.130     0.00621
  4.140     0.00628
  4.150     0.00533
  4.160     0.00447
  4.170     0.00662
  4.180     0.00529
  4.190     0.00513
  4.200     0.00542
  4.210     0.00457
  4.220     0.00418
  4.230     0.00394
  4.240     0.00537
  4.250     0.00408
  4.260     0.00497
  4.270     0.00473
  4.280     0.00540
  4.290     0.00516
  4.300     0.00522
  4.310     0.00685
  4.320     0.00609
  4.330     0.00556
  4.340     0.00584
  4.350     0.00700
  4.360     0.00691
  4.370     0.00917
  4.380     0.00923
  4.390     0.00906
  4.400     0.01057
  4.410     0.01142
  4.420     0.01314
  4.430     0.01267
  4.440     0.01430
  4.450     0.01463
  4.460     0.01819
  4.470     0.01866
  4.480     0.02012
  4.490     0.02264
  4.500     0.02288
  4.510     0.02596
  4.520     0.02597
  4.530     0.02471
  4.540     0.02819
  4.550     0.03031
  4.560     0.03341
  4.570     0.03537
  4.580     0.03565
  4.590     0.03592
  4.600     0.03988
  4.610     0.04126
  4.620     0.04283
  4.630     0.04434
  4.640     0.04417
  4.650     0.04863
  4.660     0.04488
  4.670     0.05027
  4.680     0.04365
  4.690     0.04780
  4.700     0.04613
  4.710     0.04808
  4.720     0.04777
  4.730     0.04937
  4.740     0.04635
  4.750     0.04814
  4.760     0.04616
  4.770     0.04499
  4.780     0.04335
  4.790     0.04426
  4.800     0.03795
  4.810     0.04228
  4.820     0.04072
  4.830     0.03825
  4.840     0.03459
  4.850     0.03531
  4.860     0.03339
  4.870     0.03346
  4.880     0.03063
  4.890     0.02860
  4.900     0.02808
  4.910     0.02528
  4.920     0.02510
  4.930     0.02114
  4.940     0.01935
  4.950     0.02352
  4.960     0.01966
  4.970     0.01575
  4.980     0.01539
  4.990     0.01774
  5.000     0.01424
  5.010     0.01415
  5.020     0.01240
  5.030     0.01333
  5.040     0.01184
  5.050     0.01073
  5.060     0.01103
  5.070     0.00993
  5.080     0.01118
  5.090     0.01002
  5.100     0.00950
  5.110     0.01023
  5.120     0.01021
  5.130     0.01107
  5.140     0.00899
  5.150     0.01015
  5.160     0.01169
  5.170     0.01390
  5.180     0.01195
  5.190     0.01094
  5.200     0.01166
  5.210     0.01342
  5.220     0.01290
  5.230     0.01588
  5.240     0.01328
  5.250     0.01411
  5.260     0.01451
  5.270     0.01564
  5.280     0.01658
  5.290     0.01722
  5.300     0.01918
  5.310     0.01909
  5.320     0.01917
  5.330     0.02130
  5.340     0.02090
  5.350     0.02062
  5.360     0.02202
  5.370     0.02180
  5.380     0.01944
  5.390     0.02130
  5.400     0.02263
  5.410     0.02330
  5.420     0.02160
  5.430     0.02374
  5.440     0.02140
  5.450     0.02266
  5.460     0.02109
  5.470     0.01900
  5.480     0.02218
  5.490     0.02010
  5.500     0.02058
  5.510     0.02043
  5.520     0.02109
  5.530     0.01960
  5.540     0.01772
  5.550     0.01728
  5.560     0.01592
  5.570     0.01768
  5.580     0.01466
  5.590     0.01589
  5.600     0.01569
  5.610     0.01389
  5.620     0.01353
  5.630     0.01407
  5.640     0.01217
  5.650     0.01255
  5.660     0.01122
  5.670     0.01369
  5.680     0.01203
  5.690     0.01212
  5.700     0.01176
  5.710     0.01180
  5.720     0.01206
  5.730     0.01310
  5.740     0.01073
  5.750     0.01171
  5.760     0.01214
  5.770     0.01140
  5.780     0.01104
  5.790     0.01235
  5.800     0.01537
  5.810     0.01253
  5.820     0.01565
  5.830     0.01491
  5.840     0.01532
  5.850     0.01590
  5.860     0.01582
  5.870     0.01699
  5.880     0.01876
  5.890     0.01900
  5.900     0.02093
  5.910     0.01813
  5.920     0.02346
  5.930     0.02180
  5.940     0.02446
  5.950     0.02507
  5.960     0.02459
  5.970     0.02831
  5.980     0.02741
  5.990     0.02656
  6.000     0.02812
  6.010     0.03143
  6.020     0.03074
  6.030     0.02931
  6.040     0.03022
  6.050     0.03144
  6.060     0.03038
  6.070     0.03091
  6.080     0.03292
  6.090     0.03207
  6.100     0.03128
  6.110     0.03155
  6.120     0.03333
  6.130     0.03035
  6.140     0.03349
  6.150     0.02837
  6.160     0.02739
  6.170     0.02911
  6.180     0.02787
  6.190     0.02814
  6.200     0.02742
  6.210     0.02877
  6.220     0.02516
  6.230     0.02482
  6.240     0.02411
  6.250     0.02191
  6.260     0.02075
  6.270     0.02220
  6.280     0.01946
  6.290     0.02101
  6.300     0.01940
  6.310     0.01779
  6.320     0.01837
  6.330     0.01647
  6.340     0.01594
  6.350     0.01571
  6.360     0.01498
  6.370     0.01450
  6.380     0.01518
  6.390     0.01265
  6.400     0.01368
  6.410     0.01411
  6.420     0.01214
  6.430     0.01277
  6.440     0.01245
  6.450     0.01223
  6.460     0.01157
  6.470     0.01155
  6.480     0.01133
  6.490     0.01250
  6.500     0.01184
  6.510     0.01222
  6.520     0.01274
  6.530     0.01243
  6.540     0.01314
  6.550     0.01268
  6.560     0.01257
  6.570     0.01308
  6.580     0.01306
  6.590     0.01368
  6.600     0.01404
  6.610     0.01509
  6.620     0.01410
  6.630     0.01427
  6.640     0.01411
  6.650     0.01413
  6.660     0.01541
  6.670     0.01577
  6.680     0.01743
  6.690     0.01582
  6.700     0.01513
  6.710     0.01467
  6.720     0.01351
  6.730     0.01477
  6.740     0.01508
  6.750     0.01701
  6.760     0.01585
  6.770     0.01691
  6.780     0.01646
  6.790     0.01658
  6.800     0.01618
  6.810     0.01714
  6.820     0.01651
  6.830     0.01850
  6.840     0.01819
  6.850     0.01756
  6.860     0.01805
  6.870     0.02124
  6.880     0.02037
  6.890     0.02062
  6.900     0.02152
  6.910     0.02242
  6.920     0.02475
  6.930     0.02254
  6.940     0.02639
  6.950     0.02543
  6.960     0.02866
  6.970     0.02858
  6.980     0.02863
  6.990     0.03239
  7.000     0.03331
  7.010     0.03569
  7.020     0.03546
  7.030     0.03632
  7.040     0.03572
  7.050     0.03867
  7.060     0.04279
  7.070     0.04455
  7.080     0.04603
  7.090     0.04474
  7.100     0.04748
  7.110     0.05021
  7.120     0.04933
  7.130     0.05196
  7.140     0.05018
  7.150     0.05136
  7.160     0.05250
  7.170     0.05108
  7.180     0.05347
  7.190     0.05277
  7.200     0.05341
  7.210     0.05125
  7.220     0.05477
  7.230     0.05053
  7.240     0.04997
  7.250     0.05026
  7.260     0.05089
  7.270     0.04990
  7.280     0.04996
  7.290     0.04686
  7.300     0.04569
  7.310     0.04212
  7.320     0.04342
  7.330     0.04043
  7.340     0.03959
  7.350     0.03976
  7.360     0.03565
  7.370     0.03577
  7.380     0.03412
  7.390     0.03329
  7.400     0.03290
  7.410     0.03194
  7.420     0.02939
  7.430     0.02543
  7.440     0.02410
  7.450     0.02316
  7.460     0.02408
  7.470     0.02284
  7.480     0.01955
  7.490     0.02034
  7.500     0.01984
  7.510     0.01862
  7.520     0.01821
  7.530     0.01640
  7.540     0.01659
  7.550     0.01636
  7.560     0.01536
  7.570     0.01415
  7.580     0.01485
  7.590     0.01437
  7.600     0.01452
  7.610     0.01294
  7.620     0.01326
  7.630     0.01341
  7.640     0.01377
  7.650     0.01371
  7.660     0.01218
  7.670     0.01250
  7.680     0.01378
  7.690     0.01335
  7.700     0.01241
  7.710     0.01140
  7.720     0.01413
  7.730     0.01386
  7.740     0.01326
  7.750     0.01432
  7.760     0.01331
  7.770     0.01267
  7.780     0.01274
  7.790     0.01211
  7.800     0.01480
  7.810     0.01495
  7.820     0.01448
  7.830     0.01393
  7.840     0.01440
  7.850     0.01581
  7.860     0.01771
  7.870     0.01712
  7.880     0.01636
  7.890     0.01846
  7.900     0.01705
  7.910     0.02019
  7.920     0.02001
  7.930     0.01897
  7.940     0.02145
  7.950     0.02191
  7.960     0.02337
  7.970     0.02237
  7.980     0.02596
  7.990     0.02425
  8.000     0.02562
  8.010     0.02751
  8.020     0.02891
  8.030     0.02676
  8.040     0.02880
  8.050     0.02972
  8.060     0.03219
  8.070     0.02933
  8.080     0.03136
  8.090     0.03283
  8.100     0.03176
  8.110     0.03362
  8.120     0.03286
  8.130     0.03420
  8.140     0.03574
  8.150     0.03365
  8.160     0.03325
  8.170     0.03443
  8.180     0.03541
  8.190     0.03489
  8.200     0.03348
  8.210     0.03563
  8.220     0.03496
  8.230     0.03219
  8.240     0.03215
  8.250     0.03309
  8.260     0.03347
  8.270     0.03324
  8.280     0.03049
  8.290     0.03029
  8.300     0.03068
  8.310     0.02821
  8.320     0.03150
  8.330     0.03046
  8.340     0.02842
  8.350     0.02850
  8.360     0.02916
  8.370     0.02805
  8.380     0.02649
  8.390     0.02680
  8.400     0.02654
  8.410     0.02658
  8.420     0.02647
  8.430     0.02732
  8.440     0.02702
  8.450     0.02509
  8.460     0.02563
  8.470     0.02719
  8.480     0.02742
  8.490     0.02588
  8.500     0.02713
  8.510     0.02570
  8.520     0.02695
  8.530     0.02730
  8.540     0.02768
  8.550     0.02525
  8.560     0.02593
  8.570     0.02631
  8.580     0.02714
  8.590     0.02644
  8.600     0.02547
  8.610     0.02660
  8.620     0.02660
  8.630     0.02490
  8.640     0.02565
  8.650     0.02610
  8.660     0.02530
  8.670     0.02467
  8.680     0.02487
  8.690     0.02307
  8.700     0.02437
  8.710     0.02475
  8.720     0.02508
  8.730     0.02425
  8.740     0.02371
  8.750     0.02496
  8.760     0.02622
  8.770     0.02326
  8.780     0.02652
  8.790     0.02518
  8.800     0.02347
  8.810     0.02363
  8.820     0.02375
  8.830     0.02401
  8.840     0.02347
  8.850     0.02410
  8.860     0.02429
  8.870     0.02488
  8.880     0.02510
  8.890     0.02435
  8.900     0.02490
  8.910     0.02603
  8.920     0.02557
  8.930     0.02500
  8.940     0.02558
  8.950     0.02552
  8.960     0.02577
  8.970     0.02560
  8.980     0.02600
  8.990     0.02922
  9.000     0.02477
  9.010     0.02670
  9.020     0.02770
  9.030     0.02582
  9.040     0.02540
  9.050     0.02662
  9.060     0.02606
  9.070     0.02539
  9.080     0.02593
  9.090     0.02615
  9.100     0.02622
  9.110     0.02739
  9.120     0.02634
  9.130     0.02656
  9.140     0.02639
  9.150     0.02321
  9.160     0.02563
  9.170     0.02529
  9.180     0.02498
  9.190     0.02454
  9.200     0.02667
  9.210     0.02504
  9.220     0.02567
  9.230     0.02346
  9.240     0.02298
  9.250     0.02403
  9.260     0.02639
  9.270     0.02581
  9.280     0.02609
  9.290     0.02503
  9.300     0.02583
  9.310     0.02508
  9.320     0.02798
  9.330     0.02747
  9.340     0.02837
  9.350     0.02741
  9.360     0.02878
  9.370     0.02817
  9.380     0.02879
  9.390     0.02845
  9.400     0.02911
  9.410     0.03252
  9.420     0.02880
  9.430     0.03095
  9.440     0.03143
  9.450     0.03106
  9.460     0.03065
  9.470     0.03245
  9.480     0.03265
  9.490     0.03278
  9.500     0.03123
  9.510     0.03416
  9.520     0.03467
  9.530     0.03581
  9.540     0.03692
  9.550     0.03782
  9.560     0.03553
  9.570     0.03663
  9.580     0.03904
  9.590     0.03997
  9.600     0.03932
  9.610     0.04118
  9.620     0.04454
  9.630     0.04273
  9.640     0.04392
  9.650     0.04517
  9.660     0.04436
  9.670     0.04524
  9.680     0.04543
  9.690     0.04608
  9.700     0.04556
  9.710     0.04829
  9.720     0.04778
  9.730     0.04987
  9.740     0.04933
  9.750     0.05050
  9.760     0.05169
  9.770     0.05226
  9.780     0.04991
  9.790     0.04849
  9.800     0.05093
  9.810     0.05110
  9.820     0.05010
  9.830     0.04790
  9.840     0.04840
  9.850     0.04894
  9.860     0.04723
  9.870     0.04728
  9.880     0.04607
  9.890     0.04563
  9.900     0.04536
  9.910     0.04262
  9.920     0.04058
  9.930     0.04367
  9.940     0.04075
  9.950     0.03871
  9.960     0.03855
  9.970     0.03735
  9.980     0.03561
  9.990     0.03329
 10.000     0.03470
 10.010     0.03291
 10.020     0.02967
 10.030     0.03086
 10.040     0.02699
 10.050     0.02556
 10.060     0.02640
 10.070     0.02382
 10.080     0.02393
 10.090     0.02263
 10.100     0.02305
 10.110     0.01999
 10.120     0.02016
 10.130     0.02124
 10.140     0.01917
 10.150     0.01956
 10.160     0.01780
 10.170     0.02018
 10.180     0.01853
 10.190     0.01907
 10.200     0.01770
 10.210     0.01822
 10.220     0.01635
 10.230     0.01840
 10.240     0.01848
 10.250     0.01831
 10.260     0.01869
 10.270     0.01921
 10.280     0.01972
 10.290     0.01992
 10.300     0.02018
 10.310     0.01994
 10.320     0.02061
 10.330     0.02124
 10.340     0.02116
 10.350     0.02244
 10.360     0.02359
 10.370     0.02456
 10.380     0.02441
 10.390     0.02550
 10.400     0.02575
 10.410     0.02739
 10.420     0.02613
 10.430     0.02721
 10.440     0.02645
 10.450     0.02996
 10.460     0.02895
 10.470     0.02987
 10.480     0.03112
 10.490     0.03143
 10.500     0.02914
 10.510     0.03006
 10.520     0.02945
 10.530     0.03220
 10.540     0.03061
 10.550     0.03128
 10.560     0.03077
 10.570     0.03074
 10.580     0.03035
 10.590     0.03262
 10.600     0.03165
 10.610     0.03141
 10.620     0.03062
 10.630     0.03005
 10.640     0.02927
 10.650     0.03078
 10.660     0.02888
 10.670     0.03021
 10.680     0.02982
 10.690     0.02934
 10.700     0.02863
 10.710     0.02839
 10.720     0.02791
 10.730     0.02768
 10.740     0.02762
 10.750     0.02617
 10.760     0.02522
 10.770     0.02484
 10.780     0.02499
 10.790     0.02414
 10.800     0.02224
 10.810     0.02234
 10.820     0.02526
 10.830     0.02233
 10.840     0.02332
 10.850     0.02397
 10.860     0.02327
 10.870     0.02290
 10.880     0.02255
 10.890     0.02253
 10.900     0.02416
 10.910     0.02364
 10.920     0.02435
 10.930     0.02333
 10.940     0.02345
 10.950     0.02490
 10.960     0.02517
 10.970     0.02573
 10.980     0.02594
 10.990     0.02612
 11.000     0.02674
 11.010     0.02881
 11.020     0.02844
 11.030     0.02765
 11.040     0.02862
 11.050     0.02792
 11.060     0.03045
 11.070     0.03042
 11.080     0.03031
 11.090     0.02892
 11.100     0.03285
 11.110     0.03118
 11.120     0.03129
 11.130     0.03202
 11.140     0.03418
 11.150     0.03521
 11.160     0.03340
 11.170     0.03575
 11.180     0.03480
 11.190     0.03583
 11.200     0.03542
 11.210     0.03539
 11.220     0.03613
 11.230     0.03516
 11.240     0.03476
 11.250     0.03521
 11.260     0.03629
 11.270     0.03600
 11.280     0.03702
 11.290     0.03784
 11.300     0.03522
 11.310     0.03568
 11.320     0.03678
 11.330     0.03541
 11.340     0.03592
 11.350     0.03580
 11.360     0.03329
 11.370     0.03408
 11.380     0.03653
 11.390     0.03368
 11.400     0.03548
 11.410     0.03491
 11.420     0.03626
 11.430     0.03555
 11.440     0.03597
 11.450     0.03549
 11.460     0.03708
 11.470     0.03369
 11.480     0.03417
 11.490     0.03584
 11.500     0.03615
 11.510     0.03597
 11.520     0.03558
 11.530     0.03563
 11.540     0.03527
 11.550     0.03657
 11.560     0.03562
 11.570     0.03498
 11.580     0.03903
 11.590     0.03811
 11.600     0.03752
 11.610     0.03934
 11.620     0.03942
 11.630     0.04079
 11.640     0.03990
 11.650     0.04080
 11.660     0.03947
 11.670     0.04013
 11.680     0.03930
 11.690     0.04014
 11.700     0.04076
 11.710     0.03988
 11.720     0.04198
 11.730     0.04060
 11.740     0.04150
 11.750     0.04234
 11.760     0.04247
 11.770     0.04232
 11.780     0.04237
 11.790     0.04391
 11.800     0.04518
 11.810     0.04209
 11.820     0.04192
 11.830     0.04490
 11.840     0.04516
 11.850     0.04431
 11.860     0.04484
 11.870     0.04461
 11.880     0.04403
 11.890     0.04419
 11.900     0.04277
 11.910     0.04301
 11.920     0.04300
 11.930     0.04417
 11.940     0.04182
 11.950     0.04045
 11.960     0.04154
 11.970     0.04148
 11.980     0.04262
 11.990     0.04015
 12.000     0.03910
 12.010     0.04046
 12.020     0.03741
 12.030     0.03847
 12.040     0.03961
 12.050     0.03713
 12.060     0.03657
 12.070     0.03470
 12.080     0.03470
 12.090     0.03576
 12.100     0.03446
 12.110     0.03485
 12.120     0.03358
 12.130     0.03456
 12.140     0.03313
 12.150     0.03276
 12.160     0.03379
 12.170     0.03310
 12.180     0.03139
 12.190     0.03236
 12.200     0.03131
 12.210     0.03176
 12.220     0.03349
 12.230     0.03304
 12.240     0.03176
 12.250     0.03090
 12.260     0.03367
 12.270     0.03061
 12.280     0.03184
 12.290     0.03213
 12.300     0.03210
 12.310     0.03426
 12.320     0.03077
 12.330     0.03184
 12.340     0.03324
 12.350     0.03322
 12.360     0.03249
 12.370     0.03430
 12.380     0.03184
 12.390     0.03295
 12.400     0.03412
 12.410     0.03404
 12.420     0.03213
 12.430     0.03197
 12.440     0.03117
 12.450     0.03465
 12.460     0.03359
 12.470     0.03580
 12.480     0.03364
 12.490     0.03125
 12.500     0.03274
 12.510     0.03343
 12.520     0.03200
 12.530     0.03210
 12.540     0.03256
 12.550     0.03189
 12.560     0.03228
 12.570     0.03238
 12.580     0.03200
 12.590     0.03011
 12.600     0.03065
 12.610     0.03134
 12.620     0.03243
 12.630     0.03085
 12.640     0.02971
 12.650     0.02961
 12.660     0.02969
 12.670     0.02904
 12.680     0.03005
 12.690     0.02987
 12.700     0.02783
 12.710     0.02670
 12.720     0.02769
 12.730     0.02673
 12.740     0.02716
 12.750     0.02810
 12.760     0.02705
 12.770     0.02793
 12.780     0.02856
 12.790     0.02914
 12.800     0.02844
 12.810     0.02922
 12.820     0.02647
 12.830     0.02927
 12.840     0.02850
 12.850     0.02830
 12.860     0.02768
 12.870     0.02901
 12.880     0.02784
 12.890     0.02757
 12.900     0.02750
 12.910     0.02760
 12.920     0.02909
 12.930     0.02756
 12.940     0.02907
 12.950     0.02888
 12.960     0.02883
 12.970     0.02742
 12.980     0.02963
 12.990     0.02975
 13.000     0.02914
 13.010     0.03008
 13.020     0.02848
 13.030     0.02964
 13.040     0.02883
 13.050     0.02920
 13.060     0.02962
 13.070     0.02962
 13.080     0.02729
 13.090     0.02992
 13.100     0.02852
 13.110     0.03163
 13.120     0.02853
 13.130     0.02804
 13.140     0.02663
 13.150     0.02985
 13.160     0.02815
 13.170     0.02869
 13.180     0.02808
 13.190     0.02607
 13.200     0.02872
 13.210     0.02695
 13.220     0.02839
 13.230     0.02836
 13.240     0.02769
 13.250     0.02786
 13.260     0.02724
 13.270     0.02680
 13.280     0.02961
 13.290     0.02715
 13.300     0.02875
 13.310     0.02844
 13.320     0.02976
 13.330     0.02931
 13.340     0.03121
 13.350     0.03015
 13.360     0.03083
 13.370     0.03109
 13.380     0.03215
 13.390     0.03382
 13.400     0.03203
 13.410     0.03346
 13.420     0.03494
 13.430     0.03518
 13.440     0.03467
 13.450     0.03560
 13.460     0.03593
 13.470     0.03645
 13.480     0.03671
 13.490     0.03833
 13.500     0.03941
 13.510     0.03827
 13.520     0.04083
 13.530     0.03776
 13.540     0.03864
 13.550     0.04010
 13.560     0.04116
 13.570     0.04169
 13.580     0.04221
 13.590     0.04272
 13.600     0.04316
 13.610     0.04183
 13.620     0.04312
 13.630     0.04490
 13.640     0.04162
 13.650     0.04220
 13.660     0.04266
 13.670     0.04334
 13.680     0.04370
 13.690     0.04283
 13.700     0.04163
 13.710     0.04209
 13.720     0.04156
 13.730     0.04196
 13.740     0.04146
 13.750     0.04238
 13.760     0.04140
 13.770     0.04169
 13.780     0.04145
 13.790     0.04014
 13.800     0.04172
 13.810     0.04417
 13.820     0.04182
 13.830     0.04123
 13.840     0.04171
 13.850     0.03981
 13.860     0.04168
 13.870     0.04137
 13.880     0.04055
 13.890     0.04006
 13.900     0.04209
 13.910     0.04263
 13.920     0.04081
 13.930     0.04280
 13.940     0.04353
 13.950     0.04336
 13.960     0.04375
 13.970     0.04257
 13.980     0.04387
 13.990     0.04383
 14.000     0.04357
 14.010     0.04544
 14.020     0.04665
 14.030     0.04522
 14.040     0.04692
 14.050     0.04552
 14.060     0.04740
 14.070     0.04901
 14.080     0.04547
 14.090     0.04751
 14.100     0.04600
 14.110     0.04671
 14.120     0.04725
 14.130     0.04740
 14.140     0.04777
 14.150     0.04828
 14.160     0.04777
 14.170     0.04869
 14.180     0.04874
 14.190     0.04665
 14.200     0.04935
 14.210     0.04794
 14.220     0.04746
 14.230     0.04643
 14.240     0.04721
 14.250     0.04526
 14.260     0.04359
 14.270     0.04612
 14.280     0.04461
 14.290     0.04449
 14.300     0.04394
 14.310     0.04330
 14.320     0.04329
 14.330     0.04215
 14.340     0.04274
 14.350     0.04070
 14.360     0.04125
 14.370     0.04022
 14.380     0.03903
 14.390     0.03941
 14.400     0.03700
 14.410     0.03766
 14.420     0.03550
 14.430     0.03756
 14.440     0.03789
 14.450     0.03463
 14.460     0.03320
 14.470     0.03281
 14.480     0.03256
 14.490     0.03152
 14.500     0.03090
 14.510     0.03210
 14.520     0.03055
 14.530     0.02845
 14.540     0.02779
 14.550     0.02766
 14.560     0.02749
 14.570     0.02694
 14.580     0.02754
 14.590     0.02636
 14.600     0.02592
 14.610     0.02522
 14.620     0.02398
 14.630     0.02508
 14.640     0.02447
 14.650     0.02437
 14.660     0.02453
 14.670     0.02250
 14.680     0.02329
 14.690     0.02181
 14.700     0.02136
 14.710     0.02183
 14.720     0.02246
 14.730     0.02075
 14.740     0.02202
 14.750     0.02257
 14.760     0.02180
 14.770     0.02165
 14.780     0.02344
 14.790     0.02125
 14.800     0.02031
 14.810     0.02187
 14.820     0.02251
 14.830     0.02295
 14.840     0.02239
 14.850     0.02292
 14.860     0.02292
 14.870     0.02496
 14.880     0.02434
 14.890     0.02557
 14.900     0.02577
 14.910     0.02607
 14.920     0.02526
 14.930     0.02496
 14.940     0.02900
 14.950     0.02813
 14.960     0.02839
 14.970     0.02925
 14.980     0.02931
 14.990     0.03008
 15.000     0.02974
 15.010     0.03075
 15.020     0.03160
 15.030     0.03222
 15.040     0.03229
 15.050     0.03340
 15.060     0.03378
 15.070     0.03335
 15.080     0.03531
 15.090     0.03509
 15.100     0.03467
 15.110     0.03579
 15.120     0.03638
 15.130     0.03661
 15.140     0.03555
 15.150     0.03735
 15.160     0.03694
 15.170     0.03749
 15.180     0.03664
 15.190     0.03596
 15.200     0.03617
 15.210     0.03665
 15.220     0.03825
 15.230     0.03643
 15.240     0.03561
 15.250     0.03813
 15.260     0.03617
 15.270     0.03659
 15.280     0.03799
 15.290     0.03545
 15.300     0.03608
 15.310     0.03589
 15.320     0.03570
 15.330     0.03404
 15.340     0.03431
 15.350     0.03604
 15.360     0.03623
 15.370     0.03545
 15.380     0.03720
 15.390     0.03697
 15.400     0.03647
 15.410     0.03626
 15.420     0.03600
 15.430     0.03661
 15.440     0.03548
 15.450     0.03724
 15.460     0.03707
 15.470     0.03811
 15.480     0.03926
 15.490     0.03632
 15.500     0.03791
 15.510     0.03747
 15.520     0.03831
 15.530     0.03806
 15.540     0.04142
 15.550     0.03977
 15.560     0.03923
 15.570     0.04042
 15.580     0.04093
 15.590     0.03975
 15.600     0.04318
 15.610     0.04298
 15.620     0.04211
 15.630     0.04432
 15.640     0.04128
 15.650     0.04234
 15.660     0.04268
 15.670     0.04253
 15.680     0.04271
 15.690     0.04250
 15.700     0.04202
 15.710     0.04226
 15.720     0.04140
 15.730     0.04235
 15.740     0.04344
 15.750     0.04411
 15.760     0.04113
 15.770     0.04275
 15.780     0.04216
 15.790     0.04162
 15.800     0.04312
 15.810     0.04139
 15.820     0.04053
 15.830     0.04107
 15.840     0.04070
 15.850     0.04084
 15.860     0.04030
 15.870     0.03925
 15.880     0.03981
 15.890     0.03875
 15.900     0.04045
 15.910     0.03879
 15.920     0.03892
 15.930     0.04005
 15.940     0.03986
 15.950     0.03801
 15.960     0.03808
 15.970     0.04079
 15.980     0.03854
 15.990     0.03903
 16.000     0.03803
 16.010     0.03931
 16.020     0.03718
 16.030     0.03668
 16.040     0.03661
 16.050     0.03697
 16.060     0.03617
 16.070     0.03838
 16.080     0.03618
 16.090     0.03682
 16.100     0.03558
 16.110     0.03837
 16.120     0.03721
 16.130     0.03526
 16.140     0.03664
 16.150     0.03585
 16.160     0.03636
 16.170     0.03509
 16.180     0.03586
 16.190     0.03778
 16.200     0.03532
 16.210     0.03744
 16.220     0.03636
 16.230     0.03782
 16.240     0.03679
 16.250     0.03865
 16.260     0.03811
 16.270     0.03842
 16.280     0.03814
 16.290     0.04001
 16.300     0.03857
 16.310     0.04002
 16.320     0.03870
 16.330     0.03983
 16.340     0.03902
 16.350     0.04022
 16.360     0.04199
 16.370     0.04132
 16.380     0.04294
 16.390     0.04092
 16.400     0.04213
 16.410     0.04159
 16.420     0.04301
 16.430     0.04193
 16.440     0.04271
 16.450     0.04215
 16.460     0.04277
 16.470     0.04347
 16.480     0.04568
 16.490     0.04390
 16.500     0.04438
 16.510     0.04624
 16.520     0.04293
 16.530     0.04424
 16.540     0.04487
 16.550     0.04486
 16.560     0.04445
 16.570     0.04346
 16.580     0.04389
 16.590     0.04402
 16.600     0.04206
 16.610     0.04412
 16.620     0.04263
 16.630     0.04226
 16.640     0.04273
 16.650     0.04063
 16.660     0.04156
 16.670     0.04162
 16.680     0.04055
 16.690     0.04066
 16.700     0.03974
 16.710     0.04004
 16.720     0.03720
 16.730     0.03867
 16.740     0.03707
 16.750     0.03721
 16.760     0.03726
 16.770     0.03437
 16.780     0.03592
 16.790     0.03477
 16.800     0.03370
 16.810     0.03383
 16.820     0.03312
 16.830     0.03291
 16.840     0.03297
 16.850     0.03221
 16.860     0.03000
 16.870     0.03390
 16.880     0.03118
 16.890     0.03198
 16.900     0.03278
 16.910     0.03107
 16.920     0.03022
 16.930     0.02878
 16.940     0.03018
 16.950     0.02995
 16.960     0.03009
 16.970     0.02892
 16.980     0.02899
 16.990     0.02949
 17.000     0.02858
 17.010     0.02894
 17.020     0.02798
 17.030     0.02812
 17.040     0.02801
 17.050     0.02854
 17.060     0.02732
 17.070     0.02788
 17.080     0.02687
 17.090     0.02770
 17.100     0.02763
 17.110     0.02656
 17.120     0.02610
 17.130     0.02655
 17.140     0.02653
 17.150     0.02755
 17.160     0.02665
 17.170     0.02617
 17.180     0.02701
 17.190     0.02705
 17.200     0.02590
 17.210     0.02659
 17.220     0.02721
 17.230     0.02755
 17.240     0.02722
 17.250     0.02808
 17.260     0.02821
 17.270     0.02832
 17.280     0.02615
 17.290     0.02755
 17.300     0.02746
 17.310     0.02839
 17.320     0.02698
 17.330     0.02663
 17.340     0.02843
 17.350     0.02871
 17.360     0.02867
 17.370     0.02860
 17.380     0.02993
 17.390     0.03086
 17.400     0.03040
 17.410     0.02861
 17.420     0.03207
 17.430     0.03053
 17.440     0.03160
 17.450     0.03218
 17.460     0.03314
 17.470     0.03338
 17.480     0.03483
 17.490     0.03290
 17.500     0.03359
 17.510     0.03372
 17.520     0.03442
 17.530     0.03526
 17.540     0.03454
 17.550     0.03520
 17.560     0.03553
 17.570     0.03762
 17.580     0.03844
 17.590     0.03920
 17.600     0.03947
 17.610     0.03776
 17.620     0.03966
 17.630     0.03964
 17.640     0.03922
 17.650     0.03967
 17.660     0.04119
 17.670     0.04129
 17.680     0.04142
 17.690     0.04290
 17.700     0.04271
 17.710     0.04133
 17.720     0.04286
 17.730     0.04313
 17.740     0.04478
 17.750     0.04373
 17.760     0.04358
 17.770     0.04503
 17.780     0.04602
 17.790     0.04457
 17.800     0.04548
 17.810     0.04360
 17.820     0.04536
 17.830     0.04407
 17.840     0.04464
 17.850     0.04636
 17.860     0.04456
 17.870     0.04498
 17.880     0.04720
 17.890     0.04557
 17.900     0.04564
 17.910     0.04540
 17.920     0.04374
 17.930     0.04554
 17.940     0.04437
 17.950     0.04351
 17.960     0.04422
 17.970     0.04492
 17.980     0.04392
 17.990     0.04384
 18.000     0.04266
 18.010     0.04308
 18.020     0.04320
 18.030     0.04188
 18.040     0.04351
 18.050     0.04254
 18.060     0.04319
 18.070     0.04281
 18.080     0.04298
 18.090     0.04060
 18.100     0.04279
 18.110     0.04302
 18.120     0.04206
 18.130     0.04046
 18.140     0.04121
 18.150     0.04312
 18.160     0.04193
 18.170     0.04046
 18.180     0.04024
 18.190     0.04084
 18.200     0.04124
 18.210     0.04028
 18.220     0.04084
 18.230     0.03932
 18.240     0.03992
 18.250     0.04046
 18.260     0.03973
 18.270     0.03989
 18.280     0.04004
 18.290     0.03995
 18.300     0.03747
 18.310     0.03757
 18.320     0.03852
 18.330     0.03963
 18.340     0.03942
 18.350     0.03644
 18.360     0.03772
 18.370     0.03743
 18.380     0.03624
 18.390     0.03642
 18.400     0.03537
 18.410     0.03500
 18.420     0.03594
 18.430     0.03590
 18.440     0.03420
 18.450     0.03611
 18.460     0.03334
 18.470     0.03494
 18.480     0.03560
 18.490     0.03369
 18.500     0.03417
 18.510     0.03460
 18.520     0.03431
 18.530     0.03476
 18.540     0.03462
 18.550     0.03418
 18.560     0.03558
 18.570     0.03529
 18.580     0.03497
 18.590     0.03461
 18.600     0.03349
 18.610     0.03593
 18.620     0.03383
 18.630     0.03409
 18.640     0.03465
 18.650     0.03391
 18.660     0.03577
 18.670     0.03377
 18.680     0.03606
 18.690     0.03482
 18.700     0.03617
 18.710     0.03665
 18.720     0.03631
 18.730     0.03622
 18.740     0.03485
 18.750     0.03695
 18.760     0.03542
 18.770     0.03556
 18.780     0.03573
 18.790     0.03533
 18.800     0.03603
 18.810     0.03663
 18.820     0.03560
 18.830     0.03560
 18.840     0.03624
 18.850     0.03580
 18.860     0.03701
 18.870     0.03563
 18.880     0.03607
 18.890     0.03545
 18.900     0.03669
 18.910     0.03711
 18.920     0.03567
 18.930     0.03724
 18.940     0.03593
 18.950     0.03568
 18.960     0.03657
 18.970     0.03710
 18.980     0.03669
 18.990     0.03650
 19.000     0.03538
 19.010     0.03649
 19.020     0.03602
 19.030     0.03804
 19.040     0.03553
 19.050     0.03682
 19.060     0.03677
 19.070     0.03550
 19.080     0.03584
 19.090     0.03616
 19.100     0.03626
 19.110     0.03488
 19.120     0.03625
 19.130     0.03650
 19.140     0.03497
 19.150     0.03457
 19.160     0.03316
 19.170     0.03545
 19.180     0.03339
 19.190     0.03383
 19.200     0.03418
 19.210     0.03459
 19.220     0.03581
 19.230     0.03319
 19.240     0.03332
 19.250     0.03392
 19.260     0.03326
 19.270     0.03192
 19.280     0.03124
 19.290     0.03192
 19.300     0.03217
 19.310     0.03270
 19.320     0.03197
 19.330     0.03282
 19.340     0.03322
 19.350     0.03242
 19.360     0.03241
 19.370     0.03322
 19.380     0.03247
 19.390     0.03293
 19.400     0.03315
 19.410     0.03287
 19.420     0.03341
 19.430     0.03262
 19.440     0.03224
 19.450     0.03197
 19.460     0.03308
 19.470     0.03305
 19.480     0.03235
 19.490     0.03291
 19.500     0.03398
 19.510     0.03438
 19.520     0.03413
 19.530     0.03383
 19.540     0.03304
 19.550     0.03229
 19.560     0.03291
 19.570     0.03478
 19.580     0.03447
 19.590     0.03414
 19.600     0.03502
 19.610     0.03466
 19.620     0.03497
 19.630     0.03521
 19.640     0.03477
 19.650     0.03526
 19.660     0.03477
 19.670     0.03514
 19.680     0.03532
 19.690     0.03523
 19.700     0.03551
 19.710     0.03642
 19.720     0.03508
 19.730     0.03628
 19.740     0.03527
 19.750     0.03397
 19.760     0.03573
 19.770     0.03488
 19.780     0.03502
 19.790     0.03668
 19.800     0.03646
 19.810     0.03617
 19.820     0.03686
 19.830     0.03741
 19.840     0.03699
 19.850     0.03539
 19.860     0.03731
 19.870     0.03653
 19.880     0.03627
 19.890     0.03591
 19.900     0.03593
 19.910     0.03596
 19.920     0.03550
 19.930     0.03743
 19.940     0.03664
 19.950     0.03748
 19.960     0.03738
 19.970     0.03892
 19.980     0.03663
 19.990     0.03819
 20.000     0.03841
 20.010     0.03732
 20.020     0.03760
 20.030     0.04024
 20.040     0.03811
 20.050     0.03831
 20.060     0.03746
 20.070     0.03832
 20.080     0.03806
 20.090     0.03948
 20.100     0.03894
 20.110     0.03853
 20.120     0.03877
 20.130     0.03849
 20.140     0.03996
 20.150     0.03839
 20.160     0.03820
 20.170     0.03969
 20.180     0.03894
 20.190     0.03836
 20.200     0.03733
 20.210     0.04053
 20.220     0.03956
 20.230     0.03829
 20.240     0.03873
 20.250     0.03931
 20.260     0.03812
 20.270     0.03872
 20.280     0.03739
 20.290     0.03677
 20.300     0.03741
 20.310     0.03871
 20.320     0.03853
 20.330     0.03856
 20.340     0.03802
 20.350     0.03685
 20.360     0.03596
 20.370     0.03910
 20.380     0.03753
 20.390     0.03673
 20.400     0.03731
 20.410     0.03836
 20.420     0.03738
 20.430     0.03809
 20.440     0.03768
 20.450     0.03698
 20.460     0.03828
 20.470     0.03660
 20.480     0.03752
 20.490     0.03693
 20.500     0.03688
 20.510     0.03742
 20.520     0.03609
 20.530     0.03768
 20.540     0.03802
 20.550     0.03861
 20.560     0.03639
 20.570     0.03848
 20.580     0.03786
 20.590     0.03763
 20.600     0.03710
 20.610     0.03746
 20.620     0.03817
 20.630     0.03697
 20.640     0.03712
 20.650     0.03715
 20.660     0.03723
 20.670     0.03586
 20.680     0.03707
 20.690     0.03824
 20.700     0.03671
 20.710     0.03725
 20.720     0.03701
 20.730     0.03763
 20.740     0.03659
 20.750     0.03727
 20.760     0.03747
 20.770     0.03527
 20.780     0.03650
 20.790     0.03885
 20.800     0.03648
 20.810     0.03677
 20.820     0.03720
 20.830     0.03622
 20.840     0.03624
 20.850     0.03606
 20.860     0.03555
 20.870     0.03685
 20.880     0.03642
 20.890     0.03571
 20.900     0.03525
 20.910     0.03585
 20.920     0.03716
 20.930     0.03710
 20.940     0.03538
 20.950     0.03645
 20.960     0.03616
 20.970     0.03585
 20.980     0.03577
 20.990     0.03496
 21.000     0.03524
 21.010     0.03708
 21.020     0.03613
 21.030     0.03540
 21.040     0.03537
 21.050     0.03643
 21.060     0.03593
 21.070     0.03649
 21.080     0.03516
 21.090     0.03726
 21.100     0.03548
 21.110     0.03599
 21.120     0.03608
 21.130     0.03522
 21.140     0.03488
 21.150     0.03644
 21.160     0.03389
 21.170     0.03588
 21.180     0.03613
 21.190     0.03592
 21.200     0.03636
 21.210     0.03532
 21.220     0.03561
 21.230     0.03556
 21.240     0.03624
 21.250     0.03550
 21.260     0.03569
 21.270     0.03526
 21.280     0.03405
 21.290     0.03466
 21.300     0.03453
 21.310     0.03492
 21.320     0.03532
 21.330     0.03543
 21.340     0.03406
 21.350     0.03526
 21.360     0.03385
 21.370     0.03359
 21.380     0.03365
 21.390     0.03476
 21.400     0.03402
 21.410     0.03380
 21.420     0.03386
 21.430     0.03406
 21.440     0.03303
 21.450     0.03317
 21.460     0.03210
 21.470     0.03351
 21.480     0.03333
 21.490     0.03382
 21.500     0.03336
 21.510     0.03216
 21.520     0.03367
 21.530     0.03377
 21.540     0.03355
 21.550     0.03265
 21.560     0.03329
 21.570     0.03303
 21.580     0.03267
 21.590     0.03380
 21.600     0.03178
 21.610     0.03239
 21.620     0.03154
 21.630     0.03231
 21.640     0.03077
 21.650     0.03130
 21.660     0.03182
 21.670     0.03124
 21.680     0.03122
 21.690     0.03033
 21.700     0.03227
 21.710     0.03076
 21.720     0.03105
 21.730     0.03064
 21.740     0.03027
 21.750     0.03073
 21.760     0.03200
 21.770     0.03089
 21.780     0.02964
 21.790     0.03037
 21.800     0.03106
 21.810     0.02997
 21.820     0.03015
 21.830     0.03040
 21.840     0.02969
 21.850     0.03025
 21.860     0.03008
 21.870     0.03093
 21.880     0.03012
 21.890     0.03124
 21.900     0.03105
 21.910     0.03065
 21.920     0.03074
 21.930     0.03067
 21.940     0.03130
 21.950     0.03095
 21.960     0.03137
 21.970     0.03156
 21.980     0.03312
 21.990     0.03280
 22.000     0.03350
 22.010     0.03298
 22.020     0.03328
 22.030     0.03526
 22.040     0.03440
 22.050     0.03478
 22.060     0.03703
 22.070     0.03472
 22.080     0.03573
 22.090     0.03652
 22.100     0.03721
 22.110     0.03593
 22.120     0.03515
 22.130     0.03684
 22.140     0.03756
 22.150     0.03863
 22.160     0.03686
 22.170     0.03858
 22.180     0.03862
 22.190     0.03677
 22.200     0.03892
 22.210     0.03827
 22.220     0.03827
 22.230     0.03909
 22.240     0.03993
 22.250     0.03911
 22.260     0.03918
 22.270     0.03998
 22.280     0.03986
 22.290     0.03895
 22.300     0.03922
 22.310     0.03946
 22.320     0.04014
 22.330     0.03995
 22.340     0.03869
 22.350     0.04107
 22.360     0.03874
 22.370     0.03974
 22.380     0.03993
 22.390     0.03952
 22.400     0.03925
 22.410     0.03894
 22.420     0.03903
 22.430     0.03857
 22.440     0.03858
 22.450     0.03833
 22.460     0.03757
 22.470     0.03755
 22.480     0.03869
 22.490     0.03657
 22.500     0.03632
 22.510     0.03752
 22.520     0.03529
 22.530     0.03659
 22.540     0.03710
 22.550     0.03493
 22.560     0.03472
 22.570     0.03554
 22.580     0.03527
 22.590     0.03379
 22.600     0.03349
 22.610     0.03630
 22.620     0.03375
 22.630     0.03413
 22.640     0.03373
 22.650     0.03365
 22.660     0.03297
 22.670     0.03308
 22.680     0.03189
 22.690     0.03265
 22.700     0.03210
 22.710     0.03179
 22.720     0.03229
 22.730     0.03141
 22.740     0.03151
 22.750     0.03124
 22.760     0.03183
 22.770     0.03103
 22.780     0.03099
 22.790     0.03175
 22.800     0.03044
 22.810     0.03131
 22.820     0.03109
 22.830     0.03198
 22.840     0.03012
 22.850     0.03118
 22.860     0.03120
 22.870     0.03111
 22.880     0.03174
 22.890     0.03036
 22.900     0.03104
 22.910     0.03114
 22.920     0.03179
 22.930     0.03178
 22.940     0.03164
 22.950     0.03196
 22.960     0.03160
 22.970     0.03158
 22.980     0.03223
 22.990     0.03136
 23.000     0.03318
 23.010     0.03309
 23.020     0.03301
 23.030     0.03476
 23.040     0.03416
 23.050     0.03394
 23.060     0.03417
 23.070     0.03319
 23.080     0.03407
 23.090     0.03356
 23.100     0.03468
 23.110     0.03391
 23.120     0.03629
 23.130     0.03572
 23.140     0.03670
 23.150     0.03620
 23.160     0.03579
 23.170     0.03632
 23.180     0.03555
 23.190     0.03661
 23.200     0.03610
 23.210     0.03615
 23.220     0.03633
 23.230     0.03620
 23.240     0.03666
 23.250     0.03788
 23.260     0.03668
 23.270     0.03778
 23.280     0.03747
 23.290     0.03709
 23.300     0.03637
 23.310     0.03752
 23.320     0.03730
 23.330     0.03682
 23.340     0.03757
 23.350     0.03794
 23.360     0.03680
 23.370     0.03740
 23.380     0.03718
 23.390     0.03783
 23.400     0.03672
 23.410     0.03842
 23.420     0.03655
 23.430     0.03688
 23.440     0.03707
 23.450     0.03667
 23.460     0.03868
 23.470     0.03762
 23.480     0.03709
 23.490     0.03662
 23.500     0.03680
 23.510     0.03699
 23.520     0.03753
 23.530     0.03502
 23.540     0.03697
 23.550     0.03532
 23.560     0.03461
 23.570     0.03609
 23.580     0.03462
 23.590     0.03496
 23.600     0.03411
 23.610     0.03444
 23.620     0.03347
 23.630     0.03457
 23.640     0.03388
 23.650     0.03344
 23.660     0.03302
 23.670     0.03335
 23.680     0.03481
 23.690     0.03260
 23.700     0.03321
 23.710     0.03270
 23.720     0.03322
 23.730     0.03191
 23.740     0.03197
 23.750     0.03218
 23.760     0.03226
 23.770     0.03198
 23.780     0.03278
 23.790     0.03100
 23.800     0.02997
 23.810     0.03113
 23.820     0.02969
 23.830     0.03019
 23.840     0.03043
 23.850     0.02968
 23.860     0.02906
 23.870     0.02976
 23.880     0.02945
 23.890     0.02896
 23.900     0.02732
 23.910     0.02888
 23.920     0.02915
 23.930     0.02955
 23.940     0.02879
 23.950     0.02753
 23.960     0.02804
 23.970     0.02723
 23.980     0.02766
 23.990     0.02777
 24.000     0.02726
 24.010     0.02740
 24.020     0.02659
 24.030     0.02746
 24.040     0.02739
 24.050     0.02761
 24.060     0.02718
 24.070     0.02668
 24.080     0.02735
 24.090     0.02749
 24.100     0.02694
 24.110     0.02575
 24.120     0.02573
 24.130     0.02653
 24.140     0.02649
 24.150     0.02652
 24.160     0.02664
 24.170     0.02677
 24.180     0.02701
 24.190     0.02776
 24.200     0.02693
 24.210     0.02864
 24.220     0.02811
 24.230     0.02763
 24.240     0.02800
 24.250     0.02875
 24.260     0.02784
 24.270     0.02704
 24.280     0.02774
 24.290     0.02925
 24.300     0.02809
 24.310     0.02921
 24.320     0.03036
 24.330     0.02865
 24.340     0.03008
 24.350     0.03008
 24.360     0.03038
 24.370     0.03022
 24.380     0.03140
 24.390     0.03071
 24.400     0.03006
 24.410     0.03255
 24.420     0.03181
 24.430     0.03122
 24.440     0.03290
 24.450     0.03302
 24.460     0.03286
 24.470     0.03151
 24.480     0.03342
 24.490     0.03384
 24.500     0.03409
 24.510     0.03487
 24.520     0.03419
 24.530     0.03404
 24.540     0.03356
 24.550     0.03490
 24.560     0.03522
 24.570     0.03531
 24.580     0.03605
 24.590     0.03604
 24.600     0.03561
 24.610     0.03541
 24.620     0.03641
 24.630     0.03563
 24.640     0.03634
 24.650     0.03607
 24.660     0.03523
 24.670     0.03656
 24.680     0.03596
 24.690     0.03618
 24.700     0.03588
 24.710     0.03483
 24.720     0.03558
 24.730     0.03677
 24.740     0.03681
 24.750     0.03670
 24.760     0.03618
 24.770     0.03626
 24.780     0.03645
 24.790     0.03528
 24.800     0.03505
 24.810     0.03555
 24.820     0.03682
 24.830     0.03578
 24.840     0.03424
 24.850     0.03577
 24.860     0.03554
 24.870     0.03501
 24.880     0.03549
 24.890     0.03674
 24.900     0.03559
 24.910     0.03617
 24.920     0.03408
 24.930     0.03480
 24.940     0.03522
 24.950     0.03476
 24.960     0.03493
 24.970     0.03419
 24.980     0.03428
 24.990     0.03386
 25.000     0.03301
 25.010     0.03319
 25.020     0.03473
 25.030     0.03359
 25.040     0.03221
 25.050     0.03246
 25.060     0.03320
 25.070     0.03269
 25.080     0.03221
 25.090     0.03290
 25.100     0.03310
 25.110     0.03324
 25.120     0.03322
 25.130     0.03312
 25.140     0.03274
 25.150     0.03216
 25.160     0.03349
 25.170     0.03228
 25.180     0.03210
 25.190     0.03223
 25.200     0.03196
 25.210     0.03214
 25.220     0.03257
 25.230     0.03201
 25.240     0.03285
 25.250     0.03259
 25.260     0.03143
 25.270     0.03106
 25.280     0.03097
 25.290     0.03168
 25.300     0.03205
 25.310     0.03071
 25.320     0.03220
 25.330     0.03102
 25.340     0.03111
 25.350     0.03145
 25.360     0.03021
 25.370     0.03019
 25.380     0.03065
 25.390     0.03037
 25.400     0.03133
 25.410     0.02947
 25.420     0.03074
 25.430     0.02964
 25.440     0.03055
 25.450     0.02975
 25.460     0.03028
 25.470     0.03055
 25.480     0.02954
 25.490     0.02946
 25.500     0.02904
 25.510     0.02912
 25.520     0.03018
 25.530     0.03091
 25.540     0.03077
 25.550     0.02895
 25.560     0.02976
 25.570     0.03046
 25.580     0.03037
 25.590     0.03011
 25.600     0.03113
 25.610     0.03056
 25.620     0.03025
 25.630     0.03129
 25.640     0.03007
 25.650     0.02980
 25.660     0.03176
 25.670     0.03190
 25.680     0.03024
 25.690     0.03051
 25.700     0.02965
 25.710     0.03204
 25.720     0.03114
 25.730     0.03095
 25.740     0.03067
 25.750     0.03047
 25.760     0.03090
 25.770     0.03143
 25.780     0.03143
 25.790     0.03069
 25.800     0.03127
 25.810     0.03127
 25.820     0.03045
 25.830     0.03106
 25.840     0.03183
 25.850     0.03123
 25.860     0.03155
 25.870     0.03159
 25.880     0.03101
 25.890     0.03134
 25.900     0.03065
 25.910     0.03016
 25.920     0.03069
 25.930     0.03219
 25.940     0.03040
 25.950     0.03094
 25.960     0.02942
 25.970     0.03001
 25.980     0.03101
 25.990     0.03000
 26.000     0.03100
 26.010     0.03054
 26.020     0.03021
 26.030     0.03069
 26.040     0.03042
 26.050     0.02892
 26.060     0.02986
 26.070     0.02996
 26.080     0.03004
 26.090     0.02949
 26.100     0.02896
 26.110     0.03006
 26.120     0.02980
 26.130     0.02966
 26.140     0.02804
 26.150     0.02880
 26.160     0.02907
 26.170     0.02827
 26.180     0.02738
 26.190     0.02836
 26.200     0.02750
 26.210     0.02744
 26.220     0.02829
 26.230     0.02664
 26.240     0.02606
 26.250     0.02563
 26.260     0.02565
 26.270     0.02657
 26.280     0.02548
 26.290     0.02582
 26.300     0.02656
 26.310     0.02545
 26.320     0.02521
 26.330     0.02536
 26.340     0.02458
 26.350     0.02562
 26.360     0.02489
 26.370     0.02517
 26.380     0.02483
 26.390     0.02496
 26.400     0.02543
 26.410     0.02521
 26.420     0.02405
 26.430     0.02524
 26.440     0.02513
 26.450     0.02435
 26.460     0.02509
 26.470     0.02649
 26.480     0.02409
 26.490     0.02492
 26.500     0.02510
 26.510     0.02489
 26.520     0.02582
 26.530     0.02568
 26.540     0.02612
 26.550     0.02614
 26.560     0.02620
 26.570     0.02628
 26.580     0.02587
 26.590     0.02689
 26.600     0.02638
 26.610     0.02661
 26.620     0.02811
 26.630     0.02840
 26.640     0.02810
 26.650     0.02887
 26.660     0.02919
 26.670     0.02832
 26.680     0.02838
 26.690     0.02875
 26.700     0.02795
 26.710     0.02948
 26.720     0.02965
 26.730     0.02982
 26.740     0.03026
 26.750     0.03018
 26.760     0.03203
 26.770     0.03089
 26.780     0.03059
 26.790     0.03042
 26.800     0.03186
 26.810     0.03119
 26.820     0.03163
 26.830     0.03186
 26.840     0.03164
 26.850     0.03137
 26.860     0.03154
 26.870     0.03323
 26.880     0.03279
 26.890     0.03169
 26.900     0.03323
 26.910     0.03184
 26.920     0.03297
 26.930     0.03092
 26.940     0.03141
 26.950     0.03198
 26.960     0.03143
 26.970     0.03203
 26.980     0.03247
 26.990     0.03123
 27.000     0.03229
 27.010     0.03236
 27.020     0.03258
 27.030     0.03156
 27.040     0.03140
 27.050     0.03134
 27.060     0.03198
 27.070     0.03159
 27.080     0.03079
 27.090     0.03223
 27.100     0.03103
 27.110     0.03134
 27.120     0.03108
 27.130     0.03096
 27.140     0.03047
 27.150     0.03053
 27.160     0.03099
 27.170     0.02942
 27.180     0.03128
 27.190     0.03153
 27.200     0.02975
 27.210     0.03016
 27.220     0.02969
 27.230     0.03060
 27.240     0.03048
 27.250     0.03061
 27.260     0.02974
 27.270     0.02925
 27.280     0.03053
 27.290     0.03004
 27.300     0.03018
 27.310     0.03005
 27.320     0.02941
 27.330     0.02959
 27.340     0.02957
 27.350     0.02994
 27.360     0.03021
 27.370     0.03089
 27.380     0.02970
 27.390     0.03047
 27.400     0.02911
 27.410     0.03048
 27.420     0.02971
 27.430     0.02997
 27.440     0.02888
 27.450     0.03004
 27.460     0.03099
 27.470     0.02955
 27.480     0.03051
 27.490     0.03016
 27.500     0.03119
 27.510     0.03001
 27.520     0.03058
 27.530     0.03016
 27.540     0.03155
 27.550     0.03033
 27.560     0.03063
 27.570     0.03060
 27.580     0.03035
 27.590     0.02927
 27.600     0.03010
 27.610     0.03041
 27.620     0.02882
 27.630     0.02997
 27.640     0.02973
 27.650     0.02936
 27.660     0.02969
 27.670     0.02916
 27.680     0.02995
 27.690     0.02912
 27.700     0.03017
 27.710     0.02840
 27.720     0.03004
 27.730     0.02967
 27.740     0.03042
 27.750     0.02824
 27.760     0.02891
 27.770     0.02711
 27.780     0.02732
 27.790     0.02848
 27.800     0.02760
 27.810     0.02827
 27.820     0.02738
 27.830     0.02639
 27.840     0.02687
 27.850     0.02671
 27.860     0.02646
 27.870     0.02793
 27.880     0.02623
 27.890     0.02646
 27.900     0.02664
 27.910     0.02576
 27.920     0.02580
 27.930     0.02520
 27.940     0.02566
 27.950     0.02577
 27.960     0.02583
 27.970     0.02511
 27.980     0.02545
 27.990     0.02521
 28.000     0.02497
 28.010     0.02565
 28.020     0.02443
 28.030     0.02540
 28.040     0.02481
 28.050     0.02418
 28.060     0.02500
 28.070     0.02468
 28.080     0.02394
 28.090     0.02457
 28.100     0.02513
 28.110     0.02489
 28.120     0.02531
 28.130     0.02516
 28.140     0.02553
 28.150     0.02414
 28.160     0.02456
 28.170     0.02437
 28.180     0.02518
 28.190     0.02382
 28.200     0.02459
 28.210     0.02475
 28.220     0.02515
 28.230     0.02427
 28.240     0.02438
 28.250     0.02389
 28.260     0.02406
 28.270     0.02432
 28.280     0.02412
 28.290     0.02397
 28.300     0.02343
 28.310     0.02515
 28.320     0.02356
 28.330     0.02533
 28.340     0.02517
 28.350     0.02333
 28.360     0.02441
 28.370     0.02426
 28.380     0.02485
 28.390     0.02476
 28.400     0.02457
 28.410     0.02452
 28.420     0.02398
 28.430     0.02437
 28.440     0.02424
 28.450     0.02387
 28.460     0.02406
 28.470     0.02487
 28.480     0.02376
 28.490     0.02362
 28.500     0.02404
 28.510     0.02348
 28.520     0.02381
 28.530     0.02345
 28.540     0.02342
 28.550     0.02418
 28.560     0.02318
 28.570     0.02341
 28.580     0.02500
 28.590     0.02331
 28.600     0.02324
 28.610     0.02384
 28.620     0.02352
 28.630     0.02384
 28.640     0.02333
 28.650     0.02428
 28.660     0.02392
 28.670     0.02418
 28.680     0.02352
 28.690     0.02413
 28.700     0.02424
 28.710     0.02394
 28.720     0.02394
 28.730     0.02505
 28.740     0.02453
 28.750     0.02526
 28.760     0.02523
 28.770     0.02446
 28.780     0.02447
 28.790     0.02401
 28.800     0.02438
 28.810     0.02473
 28.820     0.02571
 28.830     0.02579
 28.840     0.02595
 28.850     0.02668
 28.860     0.02578
 28.870     0.02550
 28.880     0.02621
 28.890     0.02598
 28.900     0.02641
 28.910     0.02530
 28.920     0.02742
 28.930     0.02642
 28.940     0.02640
 28.950     0.02659
 28.960     0.02645
 28.970     0.02800
 28.980     0.02663
 28.990     0.02666
 29.000     0.02702
 29.010     0.02692
 29.020     0.02823
 29.030     0.02755
 29.040     0.02753
 29.050     0.02758
 29.060     0.02866
 29.070     0.02789
 29.080     0.02818
 29.090     0.02866
 29.100     0.02784
 29.110     0.02962
 29.120     0.02835
 29.130     0.02890
 29.140     0.02809
 29.150     0.02919
 29.160     0.02869
 29.170     0.02918
 29.180     0.02895
 29.190     0.02892
 29.200     0.02938
 29.210     0.03020
 29.220     0.02896
 29.230     0.02897
 29.240     0.02930
 29.250     0.02874
 29.260     0.02930
 29.270     0.02879
 29.280     0.02939
 29.290     0.02881
 29.300     0.02887
 29.310     0.03010
 29.320     0.02945
 29.330     0.02863
 29.340     0.02881
 29.350     0.02813
 29.360     0.02809
 29.370     0.02871
 29.380     0.02841
 29.390     0.02753
 29.400     0.02823
 29.410     0.02768
 29.420     0.02753
 29.430     0.02747
 29.440     0.02809
 29.450     0.02738
 29.460     0.02770
 29.470     0.02684
 29.480     0.02621
 29.490     0.02682
 29.500     0.02535
 29.510     0.02670
 29.520     0.02660
 29.530     0.02580
 29.540     0.02618
 29.550     0.02685
 29.560     0.02523
 29.570     0.02443
 29.580     0.02462
 29.590     0.02528
 29.600     0.02464
 29.610     0.02379
 29.620     0.02427
 29.630     0.02406
 29.640     0.02408
 29.650     0.02436
 29.660     0.02421
 29.670     0.02353
 29.680     0.02333
 29.690     0.02445
 29.700     0.02334
 29.710     0.02326
 29.720     0.02260
 29.730     0.02277
 29.740     0.02232
 29.750     0.02341
 29.760     0.02191
 29.770     0.02315
 29.780     0.02241
 29.790     0.02277
 29.800     0.02235
 29.810     0.02241
 29.820     0.02323
 29.830     0.02234
 29.840     0.02228
 29.850     0.02271
 29.860     0.02275
 29.870     0.02344
 29.880     0.02298
 29.890     0.02305
 29.900     0.02329
 29.910     0.02387
 29.920     0.02321
 29.930     0.02285
 29.940     0.02331
 29.950     0.02294
 29.960     0.02308
 29.970     0.02332
 29.980     0.02339
 29.990     0.02313
 30.000     0.02384
 30.010     0.02354
 30.020     0.02418
 30.030     0.02291
 30.040     0.02417
 30.050     0.02331
 30.060     0.02383
 30.070     0.02309
 30.080     0.02429
 30.090     0.02392
 30.100     0.02423
 30.110     0.02397
 30.120     0.02392
 30.130     0.02393
 30.140     0.02332
 30.150     0.02443
 30.160     0.02399
 30.170     0.02371
 30.180     0.02412
 30.190     0.02397
 30.200     0.02393
 30.210     0.02396
 30.220     0.02411
 30.230     0.02269
 30.240     0.02315
 30.250     0.02404
 30.260     0.02365
 30.270     0.02398
 30.280     0.02386
 30.290     0.02328
 30.300     0.02283
 30.310     0.02364
 30.320     0.02262
 30.330     0.02299
 30.340     0.02324
 30.350     0.02280
 30.360     0.02295
 30.370     0.02311
 30.380     0.02238
 30.390     0.02240
 30.400     0.02327
 30.410     0.02259
 30.420     0.02268
 30.430     0.02164
 30.440     0.02258
 30.450     0.02146
 30.460     0.02220
 30.470     0.02156
 30.480     0.02109
 30.490     0.02173
 30.500     0.02231
 30.510     0.02237
 30.520     0.02188
 30.530     0.02165
 30.540     0.02187
 30.550     0.02133
 30.560     0.02158
 30.570     0.02149
 30.580     0.02152
 30.590     0.02158
 30.600     0.02113
 30.610     0.02081
 30.620     0.02091
 30.630     0.02074
 30.640     0.02062
 30.650     0.02130
 30.660     0.01969
 30.670     0.02083
 30.680     0.02133
 30.690     0.02070
 30.700     0.02021
 30.710     0.02066
 30.720     0.02033
 30.730     0.02059
 30.740     0.02037
 30.750     0.02052
 30.760     0.01975
 30.770     0.02067
 30.780     0.02130
 30.790     0.02076
 30.800     0.02070
 30.810     0.01975
 30.820     0.02071
 30.830     0.02073
 30.840     0.01955
 30.850     0.02061
 30.860     0.02129
 30.870     0.01987
 30.880     0.02106
 30.890     0.02050
 30.900     0.02091
 30.910     0.01963
 30.920     0.02042
 30.930     0.02128
 30.940     0.02027
 30.950     0.02102
 30.960     0.02013
 30.970     0.02133
 30.980     0.02064
 30.990     0.02111
 31.000     0.02097
 31.010     0.02087
 31.020     0.02094
 31.030     0.02096
 31.040     0.02090
 31.050     0.02187
 31.060     0.02070
 31.070     0.02196
 31.080     0.02129
 31.090     0.02186
 31.100     0.02185
 31.110     0.02172
 31.120     0.02191
 31.130     0.02246
 31.140     0.02217
 31.150     0.02178
 31.160     0.02262
 31.170     0.02283
 31.180     0.02224
 31.190     0.02238
 31.200     0.02316
 31.210     0.02340
 31.220     0.02230
 31.230     0.02305
 31.240     0.02400
 31.250     0.02373
 31.260     0.02301
 31.270     0.02324
 31.280     0.02350
 31.290     0.02398
 31.300     0.02334
 31.310     0.02430
 31.320     0.02501
 31.330     0.02369
 31.340     0.02372
 31.350     0.02310
 31.360     0.02438
 31.370     0.02407
 31.380     0.02386
 31.390     0.02403
 31.400     0.02329
 31.410     0.02373
 31.420     0.02441
 31.430     0.02271
 31.440     0.02447
 31.450     0.02416
 31.460     0.02411
 31.470     0.02412
 31.480     0.02329
 31.490     0.02370
 31.500     0.02346
 31.510     0.02405
 31.520     0.02405
 31.530     0.02387
 31.540     0.02353
 31.550     0.02392
 31.560     0.02369
 31.570     0.02313
 31.580     0.02318
 31.590     0.02276
 31.600     0.02354
 31.610     0.02329
 31.620     0.02347
 31.630     0.02407
 31.640     0.02334
 31.650     0.02223
 31.660     0.02309
 31.670     0.02329
 31.680     0.02282
 31.690     0.02190
 31.700     0.02267
 31.710     0.02316
 31.720     0.02254
 31.730     0.02141
 31.740     0.02214
 31.750     0.02250
 31.760     0.02222
 31.770     0.02202
 31.780     0.02218
 31.790     0.02151
 31.800     0.02168
 31.810     0.02151
 31.820     0.02166
 31.830     0.02227
 31.840     0.02195
 31.850     0.02169
 31.860     0.02139
 31.870     0.02160
 31.880     0.02083
 31.890     0.02109
 31.900     0.02041
 31.910     0.02051
 31.920     0.02079
 31.930     0.02075
 31.940     0.02036
 31.950     0.02083
 31.960     0.02005
 31.970     0.02006
 31.980     0.02139
 31.990     0.02084
 32.000     0.02034
 32.010     0.02064
 32.020     0.01975
 32.030     0.02097
 32.040     0.01926
 32.050     0.01933
 32.060     0.01973
 32.070     0.01967
 32.080     0.01848
 32.090     0.01994
 32.100     0.01903
 32.110     0.02031
 32.120     0.01880
 32.130     0.01934
 32.140     0.01888
 32.150     0.01885
 32.160     0.01947
 32.170     0.01861
 32.180     0.01870
 32.190     0.01777
 32.200     0.01879
 32.210     0.01792
 32.220     0.01756
 32.230     0.01762
 32.240     0.01848
 32.250     0.01948
 32.260     0.01845
 32.270     0.01800
 32.280     0.01698
 32.290     0.01808
 32.300     0.01814
 32.310     0.01785
 32.320     0.01823
 32.330     0.01754
 32.340     0.01714
 32.350     0.01715
 32.360     0.01794
 32.370     0.01763
 32.380     0.01833
 32.390     0.01777
 32.400     0.01754
 32.410     0.01738
 32.420     0.01768
 32.430     0.01799
 32.440     0.01813
 32.450     0.01707
 32.460     0.01765
 32.470     0.01740
 32.480     0.01810
 32.490     0.01768
 32.500     0.01775
 32.510     0.01780
 32.520     0.01750
 32.530     0.01792
 32.540     0.01791
 32.550     0.01801
 32.560     0.01771
 32.570     0.01850
 32.580     0.01819
 32.590     0.01781
 32.600     0.01869
 32.610     0.01794
 32.620     0.01920
 32.630     0.01889
 32.640     0.01826
 32.650     0.01838
 32.660     0.01905
 32.670     0.01869
 32.680     0.01827
 32.690     0.01884
 32.700     0.01838
 32.710     0.01866
 32.720     0.01847
 32.730     0.01900
 32.740     0.01864
 32.750     0.01927
 32.760     0.01880
 32.770     0.02040
 32.780     0.01974
 32.790     0.01901
 32.800     0.01889
 32.810     0.01929
 32.820     0.01900
 32.830     0.01904
 32.840     0.01921
 32.850     0.01864
 32.860     0.01962
 32.870     0.01945
 32.880     0.01970
 32.890     0.01913
 32.900     0.01915
 32.910     0.01877
 32.920     0.01920
 32.930     0.01920
 32.940     0.01993
 32.950     0.01921
 32.960     0.01876
 32.970     0.01878
 32.980     0.01945
 32.990     0.01826
 33.000     0.01972
 33.010     0.01839
 33.020     0.01918
 33.030     0.01815
 33.040     0.01858
 33.050     0.01874
 33.060     0.01786
 33.070     0.01856
 33.080     0.01822
 33.090     0.01823
 33.100     0.01784
 33.110     0.01779
 33.120     0.01800
 33.130     0.01807
 33.140     0.01775
 33.150     0.01782
 33.160     0.01852
 33.170     0.01769
 33.180     0.01780
 33.190     0.01769
 33.200     0.01797
 33.210     0.01715
 33.220     0.01677
 33.230     0.01790
 33.240     0.01817
 33.250     0.01754
 33.260     0.01810
 33.270     0.01821
 33.280     0.01778
 33.290     0.01773
 33.300     0.01708
 33.310     0.01767
 33.320     0.01749
 33.330     0.01773
 33.340     0.01674
 33.350     0.01704
 33.360     0.01779
 33.370     0.01814
 33.380     0.01796
 33.390     0.01796
 33.400     0.01728
 33.410     0.01767
 33.420     0.01703
 33.430     0.01773
 33.440     0.01745
 33.450     0.01750
 33.460     0.01774
 33.470     0.01749
 33.480     0.01769
 33.490     0.01781
 33.500     0.01759
 33.510     0.01751
 33.520     0.01773
 33.530     0.01808
 33.540     0.01819
 33.550     0.01791
 33.560     0.01753
 33.570     0.01778
 33.580     0.01747
 33.590     0.01774
 33.600     0.01804
 33.610     0.01757
 33.620     0.01776
 33.630     0.01778
 33.640     0.01808
 33.650     0.01796
 33.660     0.01848
 33.670     0.01842
 33.680     0.01831
 33.690     0.01818
 33.700     0.01819
 33.710     0.01911
 33.720     0.01802
 33.730     0.01863
 33.740     0.01826
 33.750     0.01737
 33.760     0.01753
 33.770     0.01800
 33.780     0.01782
 33.790     0.01785
 33.800     0.01767
 33.810     0.01802
 33.820     0.01760
 33.830     0.01795
 33.840     0.01793
 33.850     0.01792
 33.860     0.01759
 33.870     0.01780
 33.880     0.01861
 33.890     0.01735
 33.900     0.01838
 33.910     0.01768
 33.920     0.01761
 33.930     0.01810
 33.940     0.01784
 33.950     0.01824
 33.960     0.01718
 33.970     0.01760
 33.980     0.01709
 33.990     0.01664
 34.000     0.01742
 34.010     0.01742
 34.020     0.01705
 34.030     0.01739
 34.040     0.01696
 34.050     0.01738
 34.060     0.01747
 34.070     0.01647
 34.080     0.01739
 34.090     0.01672
 34.100     0.01729
 34.110     0.01689
 34.120     0.01660
 34.130     0.01657
 34.140     0.01690
 34.150     0.01653
 34.160     0.01677
 34.170     0.01631
 34.180     0.01658
 34.190     0.01585
 34.200     0.01605
 34.210     0.01617
 34.220     0.01577
 34.230     0.01584
 34.240     0.01617
 34.250     0.01628
 34.260     0.01603
 34.270     0.01594
 34.280     0.01534
 34.290     0.01671
 34.300     0.01534
 34.310     0.01575
 34.320     0.01620
 34.330     0.01584
 34.340     0.01592
 34.350     0.01535
 34.360     0.01581
 34.370     0.01580
 34.380     0.01535
 34.390     0.01577
 34.400     0.01518
 34.410     0.01527
 34.420     0.01552
 34.430     0.01522
 34.440     0.01481
 34.450     0.01501
 34.460     0.01551
 34.470     0.01487
 34.480     0.01530
 34.490     0.01514
 34.500     0.01529
 34.510     0.01531
 34.520     0.01493
 34.530     0.01541
 34.540     0.01508
 34.550     0.01523
 34.560     0.01549
 34.570     0.01557
 34.580     0.01522
 34.590     0.01494
 34.600     0.01479
 34.610     0.01519
 34.620     0.01497
 34.630     0.01524
 34.640     0.01477
 34.650     0.01513
 34.660     0.01559
 34.670     0.01465
 34.680     0.01450
 34.690     0.01545
 34.700     0.01481
 34.710     0.01504
 34.720     0.01486
 34.730     0.01508
 34.740     0.01485
 34.750     0.01505
 34.760     0.01466
 34.770     0.01445
 34.780     0.01490
 34.790     0.01500
 34.800     0.01555
 34.810     0.01490
 34.820     0.01485
 34.830     0.01490
 34.840     0.01446
 34.850     0.01369
 34.860     0.01457
 34.870     0.01469
 34.880     0.01400
 34.890     0.01442
 34.900     0.01423
 34.910     0.01380
 34.920     0.01410
 34.930     0.01434
 34.940     0.01418
 34.950     0.01413
 34.960     0.01434
 34.970     0.01382
 34.980     0.01429
 34.990     0.01401
 35.000     0.01384
 35.010     0.01404
 35.020     0.01314
 35.030     0.01362
 35.040     0.01394
 35.050     0.01377
 35.060     0.01408
 35.070     0.01386
 35.080     0.01342
 35.090     0.01364
 35.100     0.01406
 35.110     0.01365
 35.120     0.01423
 35.130     0.01394
 35.140     0.01410
 35.150     0.01427
 35.160     0.01469
 35.170     0.01384
 35.180     0.01414
 35.190     0.01390
 35.200     0.01385
 35.210     0.01362
 35.220     0.01392
 35.230     0.01406
 35.240     0.01327
 35.250     0.01383
 35.260     0.01398
 35.270     0.01428
 35.280     0.01400
 35.290     0.01390
 35.300     0.01418
 35.310     0.01451
 35.320     0.01418
 35.330     0.01417
 35.340     0.01438
 35.350     0.01415
 35.360     0.01369
 35.370     0.01406
 35.380     0.01409
 35.390     0.01425
 35.400     0.01417
 35.410     0.01410
 35.420     0.01460
 35.430     0.01408
 35.440     0.01400
 35.450     0.01509
 35.460     0.01365
 35.470     0.01354
 35.480     0.01407
 35.490     0.01435
 35.500     0.01415
 35.510     0.01378
 35.520     0.01420
 35.530     0.01378
 35.540     0.01459
 35.550     0.01416
 35.560     0.01364
 35.570     0.01448
 35.580     0.01469
 35.590     0.01428
 35.600     0.01327
 35.610     0.01482
 35.620     0.01356
 35.630     0.01445
 35.640     0.01358
 35.650     0.01340
 35.660     0.01353
 35.670     0.01375
 35.680     0.01374
 35.690     0.01372
 35.700     0.01418
 35.710     0.01418
 35.720     0.01413
 35.730     0.01396
 35.740     0.01397
 35.750     0.01322
 35.760     0.01359
 35.770     0.01386
 35.780     0.01407
 35.790     0.01318
 35.800     0.01313
 35.810     0.01337
 35.820     0.01395
 35.830     0.01389
 35.840     0.01344
 35.850     0.01372
 35.860     0.01393
 35.870     0.01352
 35.880     0.01310
 35.890     0.01327
 35.900     0.01345
 35.910     0.01324
 35.920     0.01302
 35.930     0.01325
 35.940     0.01323
 35.950     0.01366
 35.960     0.01289
 35.970     0.01363
 35.980     0.01342
 35.990     0.01367
 36.000     0.01387
 36.010     0.01283
 36.020     0.01385
 36.030     0.01332
 36.040     0.01330
 36.050     0.01316
 36.060     0.01221
 36.070     0.01286
 36.080     0.01342
 36.090     0.01276
 36.100     0.01284
 36.110     0.01279
 36.120     0.01326
 36.130     0.01273
 36.140     0.01287
 36.150     0.01329
 36.160     0.01267
 36.170     0.01251
 36.180     0.01304
 36.190     0.01278
 36.200     0.01227
 36.210     0.01293
 36.220     0.01242
 36.230     0.01275
 36.240     0.01307
 36.250     0.01260
 36.260     0.01297
 36.270     0.01311
 36.280     0.01241
 36.290     0.01284
 36.300     0.01307
 36.310     0.01230
 36.320     0.01355
 36.330     0.01245
 36.340     0.01230
 36.350     0.01257
 36.360     0.01242
 36.370     0.01313
 36.380     0.01213
 36.390     0.01240
 36.400     0.01227
 36.410     0.01204
 36.420     0.01212
 36.430     0.01225
 36.440     0.01207
 36.450     0.01212
 36.460     0.01174
 36.470     0.01229
 36.480     0.01222
 36.490     0.01212
 36.500     0.01199
 36.510     0.01189
 36.520     0.01237
 36.530     0.01232
 36.540     0.01206
 36.550     0.01200
 36.560     0.01220
 36.570     0.01186
 36.580     0.01184
 36.590     0.01199
 36.600     0.01143
 36.610     0.01117
 36.620     0.01160
 36.630     0.01095
 36.640     0.01118
 36.650     0.01179
 36.660     0.01168
 36.670     0.01163
 36.680     0.01124
 36.690     0.01146
 36.700     0.01137
 36.710     0.01168
 36.720     0.01158
 36.730     0.01092
 36.740     0.01115
 36.750     0.01087
 36.760     0.01159
 36.770     0.01166
 36.780     0.01135
 36.790     0.01117
 36.800     0.01114
 36.810     0.01089
 36.820     0.01132
 36.830     0.01112
 36.840     0.01120
 36.850     0.01067
 36.860     0.01118
 36.870     0.01042
 36.880     0.01094
 36.890     0.01086
 36.900     0.01106
 36.910     0.01104
 36.920     0.01074
 36.930     0.01122
 36.940     0.01107
 36.950     0.01099
 36.960     0.01077
 36.970     0.01086
 36.980     0.01116
 36.990     0.01126
 37.000     0.01117
 37.010     0.01088
 37.020     0.01132
 37.030     0.01062
 37.040     0.01117
 37.050     0.01107
 37.060     0.01160
 37.070     0.01088
 37.080     0.01131
 37.090     0.01107
 37.100     0.01078
 37.110     0.01041
 37.120     0.01071
 37.130     0.01074
 37.140     0.01105
 37.150     0.01096
 37.160     0.01083
 37.170     0.01102
 37.180     0.01084
 37.190     0.01110
 37.200     0.01115
 37.210     0.01071
 37.220     0.01092
 37.230     0.01093
 37.240     0.01139
 37.250     0.01087
 37.260     0.01028
 37.270     0.01059
 37.280     0.01069
 37.290     0.01124
 37.300     0.01026
 37.310     0.01048
 37.320     0.01080
 37.330     0.01050
 37.340     0.01035
 37.350     0.00980
 37.360     0.01032
 37.370     0.01039
 37.380     0.00989
 37.390     0.01042
 37.400     0.01013
 37.410     0.00983
 37.420     0.00981
 37.430     0.01004
 37.440     0.01046
 37.450     0.01002
 37.460     0.00999
 37.470     0.01023
 37.480     0.00987
 37.490     0.00973
 37.500     0.00893
 37.510     0.00956
 37.520     0.00914
 37.530     0.00957
 37.540     0.00983
 37.550     0.00956
 37.560     0.00927
 37.570     0.00943
 37.580     0.00938
 37.590     0.00960
 37.600     0.00967
 37.610     0.00977
 37.620     0.00980
 37.630     0.00944
 37.640     0.00920
 37.650     0.00972
 37.660     0.00962
 37.670     0.00974
 37.680     0.00948
 37.690     0.00947
 37.700     0.00903
 37.710     0.00912
 37.720     0.00934
 37.730     0.00910
 37.740     0.00944
 37.750     0.00951
 37.760     0.00964
 37.770     0.00933
 37.780     0.00959
 37.790     0.00941
 37.800     0.00925
 37.810     0.00994
 37.820     0.00954
 37.830     0.00961
 37.840     0.00984
 37.850     0.00944
 37.860     0.00924
 37.870     0.00966
 37.880     0.00966
 37.890     0.00968
 37.900     0.00938
 37.910     0.00967
 37.920     0.00981
 37.930     0.00947
 37.940     0.00958
 37.950     0.01008
 37.960     0.00989
 37.970     0.00917
 37.980     0.00962
 37.990     0.00911
 38.000     0.00974
 38.010     0.00959
 38.020     0.00901
 38.030     0.00978
 38.040     0.00918
 38.050     0.00915
 38.060     0.00984
 38.070     0.00912
 38.080     0.00996
 38.090     0.00957
 38.100     0.00981
 38.110     0.00969
 38.120     0.00930
 38.130     0.00923
 38.140     0.00941
 38.150     0.00904
 38.160     0.00913
 38.170     0.00895
 38.180     0.00952
 38.190     0.00914
 38.200     0.00961
 38.210     0.00946
 38.220     0.00913
 38.230     0.00908
 38.240     0.00936
 38.250     0.00912
 38.260     0.00951
 38.270     0.00950
 38.280     0.00922
 38.290     0.00950
 38.300     0.00926
 38.310     0.00949
 38.320     0.00899
 38.330     0.00905
 38.340     0.00922
 38.350     0.00886
 38.360     0.00906
 38.370     0.00911
 38.380     0.00898
 38.390     0.00906
 38.400     0.00900
 38.410     0.00892
 38.420     0.00907
 38.430     0.00932
 38.440     0.00910
 38.450     0.00881
 38.460     0.00901
 38.470     0.00930
 38.480     0.00874
 38.490     0.00915
 38.500     0.00886
 38.510     0.00902
 38.520     0.00889
 38.530     0.00880
 38.540     0.00884
 38.550     0.00893
 38.560     0.00921
 38.570     0.00843
 38.580     0.00902
 38.590     0.00890
 38.600     0.00903
 38.610     0.00903
 38.620     0.00899
 38.630     0.00859
 38.640     0.00855
 38.650     0.00919
 38.660     0.00862
 38.670     0.00886
 38.680     0.00848
 38.690     0.00813
 38.700     0.00867
 38.710     0.00898
 38.720     0.00864
 38.730     0.00838
 38.740     0.00789
 38.750     0.00823
 38.760     0.00794
 38.770     0.00831
 38.780     0.00815
 38.790     0.00850
 38.800     0.00874
 38.810     0.00869
 38.820     0.00793
 38.830     0.00837
 38.840     0.00781
 38.850     0.00799
 38.860     0.00740
 38.870     0.00791
 38.880     0.00848
 38.890     0.00830
 38.900     0.00784
 38.910     0.00817
 38.920     0.00813
 38.930     0.00756
 38.940     0.00769
 38.950     0.00783
 38.960     0.00746
 38.970     0.00780
 38.980     0.00774
 38.990     0.00760
 39.000     0.00754
 39.010     0.00725
 39.020     0.00729
 39.030     0.00759
 39.040     0.00796
 39.050     0.00744
 39.060     0.00778
 39.070     0.00752
 39.080     0.00748
 39.090     0.00743
 39.100     0.00701
 39.110     0.00715
 39.120     0.00708
 39.130     0.00691
 39.140     0.00696
 39.150     0.00705
 39.160     0.00718
 39.170     0.00665
 39.180     0.00705
 39.190     0.00683
 39.200     0.00718
 39.210     0.00699
 39.220     0.00720
 39.230     0.00724
 39.240     0.00682
 39.250     0.00673
 39.260     0.00664
 39.270     0.00693
 39.280     0.00727
 39.290     0.00664
 39.300     0.00652
 39.310     0.00666
 39.320     0.00661
 39.330     0.00681
 39.340     0.00709
 39.350     0.00703
 39.360     0.00636
 39.370     0.00632
 39.380     0.00683
 39.390     0.00708
 39.400     0.00670
 39.410     0.00685
 39.420     0.00634
 39.430     0.00674
 39.440     0.00647
 39.450     0.00715
 39.460     0.00676
 39.470     0.00652
 39.480     0.00673
 39.490     0.00660
 39.500     0.00646
 39.510     0.00649
 39.520     0.00644
 39.530     0.00660
 39.540     0.00673
 39.550     0.00646
 39.560     0.00656
 39.570     0.00661
 39.580     0.00664
 39.590     0.00693
 39.600     0.00647
 39.610     0.00688
 39.620     0.00695
 39.630     0.00684
 39.640     0.00656
 39.650     0.00685
 39.660     0.00619
 39.670     0.00624
 39.680     0.00664
 39.690     0.00654
 39.700     0.00638
 39.710     0.00670
 39.720     0.00660
 39.730     0.00640
 39.740     0.00672
 39.750     0.00618
 39.760     0.00607
 39.770     0.00634
 39.780     0.00602
 39.790     0.00629
 39.800     0.00641
 39.810     0.00641
 39.820     0.00632
 39.830     0.00621
 39.840     0.00598
 39.850     0.00615
 39.860     0.00633
 39.870     0.00619
 39.880     0.00627
 39.890     0.00632
 39.900     0.00654
 39.910     0.00606
 39.920     0.00644
 39.930     0.00614
 39.940     0.00587
 39.950     0.00631
 39.960     0.00627
 39.970     0.00567
 39.980     0.00643
 39.990     0.00658
 40.000     0.00602
 40.010     0.00585
 40.020     0.00670
 40.030     0.00596
 40.040     0.00614
 40.050     0.00574
 40.060     0.00626
 40.070     0.00644
 40.080     0.00620
 40.090     0.00594
 40.100     0.00593
 40.110     0.00559
 40.120     0.00607
 40.130     0.00567
 40.140     0.00574
 40.150     0.00571
 40.160     0.00618
 40.170     0.00576
 40.180     0.00561
 40.190     0.00632
 40.200     0.00594
 40.210     0.00596
 40.220     0.00614
 40.230     0.00584
 40.240     0.00595
 40.250     0.00609
 40.260     0.00590
 40.270     0.00589
 40.280     0.00573
 40.290     0.00575
 40.300     0.00569
 40.310     0.00580
 40.320     0.00554
 40.330     0.00573
 40.340     0.00564
 40.350     0.00590
 40.360     0.00575
 40.370     0.00543
 40.380     0.00523
 40.390     0.00556
 40.400     0.00546
 40.410     0.00568
 40.420     0.00560
 40.430     0.00535
 40.440     0.00569
 40.450     0.00535
 40.460     0.00576
 40.470     0.00560
 40.480     0.00568
 40.490     0.00530
 40.500     0.00562
 40.510     0.00554
 40.520     0.00556
 40.530     0.00550
 40.540     0.00577
 40.550     0.00536
 40.560     0.00569
 40.570     0.00549
 40.580     0.00547
 40.590     0.00546
 40.600     0.00547
 40.610     0.00542
 40.620     0.00561
 40.630     0.00568
 40.640     0.00542
 40.650     0.00550
 40.660     0.00528
 40.670     0.00562
 40.680     0.00520
 40.690     0.00492
 40.700     0.00515
 40.710     0.00544
 40.720     0.00520
 40.730     0.00547
 40.740     0.00502
 40.750     0.00523
 40.760     0.00528
 40.770     0.00521
 40.780     0.00539
 40.790     0.00530
 40.800     0.00557
 40.810     0.00523
 40.820     0.00493
 40.830     0.00510
 40.840     0.00499
 40.850     0.00524
 40.860     0.00512
 40.870     0.00532
 40.880     0.00484
 40.890     0.00511
 40.900     0.00537
 40.910     0.00470
 40.920     0.00517
 40.930     0.00529
 40.940     0.00482
 40.950     0.00521
 40.960     0.00558
 40.970     0.00483
 40.980     0.00522
 40.990     0.00459
 41.000     0.00507
 41.010     0.00494
 41.020     0.00486
 41.030     0.00492
 41.040     0.00481
 41.050     0.00490
 41.060     0.00490
 41.070     0.00458
 41.080     0.00485
 41.090     0.00479
 41.100     0.00474
 41.110     0.00514
 41.120     0.00481
 41.130     0.00447
 41.140     0.00443
 41.150     0.00446
 41.160     0.00428
 41.170     0.00418
 41.180     0.00457
 41.190     0.00422
 41.200     0.00434
 41.210     0.00448
 41.220     0.00414
 41.230     0.00440
 41.240     0.00452
 41.250     0.00450
 41.260     0.00448
 41.270     0.00455
 41.280     0.00420
 41.290     0.00434
 41.300     0.00412
 41.310     0.00432
 41.320     0.00407
 41.330     0.00418
 41.340     0.00423
 41.350     0.00407
 41.360     0.00417
 41.370     0.00385
 41.380     0.00384
 41.390     0.00409
 41.400     0.00401
 41.410     0.00414
 41.420     0.00384
 41.430     0.00376
 41.440     0.00385
 41.450     0.00399
 41.460     0.00399
 41.470     0.00388
 41.480     0.00401
 41.490     0.00385
 41.500     0.00392
 41.510     0.00365
 41.520     0.00377
 41.530     0.00390
 41.540     0.00386
 41.550     0.00378
 41.560     0.00381
 41.570     0.00390
 41.580     0.00355
 41.590     0.00350
 41.600     0.00354
 41.610     0.00352
 41.620     0.00351
 41.630     0.00375
 41.640     0.00341
 41.650     0.00342
 41.660     0.00363
 41.670     0.00349
 41.680     0.00358
 41.690     0.00345
 41.700     0.00375
 41.710     0.00359
 41.720     0.00371
 41.730     0.00369
 41.740     0.00344
 41.750     0.00352
 41.760     0.00374
 41.770     0.00342
 41.780     0.00349
 41.790     0.00376
 41.800     0.00345
 41.810     0.00348
 41.820     0.00340
 41.830     0.00337
 41.840     0.00315
 41.850     0.00356
 41.860     0.00365
 41.870     0.00339
 41.880     0.00324
 41.890     0.00338
 41.900     0.00334
 41.910     0.00313
 41.920     0.00337
 41.930     0.00324
 41.940     0.00333
 41.950     0.00333
 41.960     0.00307
 41.970     0.00313
 41.980     0.00335
 41.990     0.00323
 42.000     0.00343
 42.010     0.00308
 42.020     0.00314
 42.030     0.00329
 42.040     0.00323
 42.050     0.00352
 42.060     0.00337
 42.070     0.00304
 42.080     0.00306
 42.090     0.00316
 42.100     0.00304
 42.110     0.00328
 42.120     0.00343
 42.130     0.00323
 42.140     0.00352
 42.150     0.00313
 42.160     0.00296
 42.170     0.00316
 42.180     0.00315
 42.190     0.00327
 42.200     0.00322
 42.210     0.00299
 42.220     0.00317
 42.230     0.00311
 42.240     0.00317
 42.250     0.00291
 42.260     0.00313
 42.270     0.00294
 42.280     0.00289
 42.290     0.00287
 42.300     0.00310
 42.310     0.00300
 42.320     0.00301
 42.330     0.00308
 42.340     0.00314
 42.350     0.00328
 42.360     0.00307
 42.370     0.00293
 42.380     0.00290
 42.390     0.00294
 42.400     0.00309
 42.410     0.00325
 42.420     0.00310
 42.430     0.00324
 42.440     0.00299
 42.450     0.00317
 42.460     0.00288
 42.470     0.00295
 42.480     0.00288
 42.490     0.00300
 42.500     0.00309
 42.510     0.00300
 42.520     0.00299
 42.530     0.00285
 42.540     0.00283
 42.550     0.00276
 42.560     0.00292
 42.570     0.00295
 42.580     0.00289
 42.590     0.00306
 42.600     0.00294
 42.610     0.00269
 42.620     0.00282
 42.630     0.00305
 42.640     0.00297
 42.650     0.00279
 42.660     0.00276
 42.670     0.00244
 42.680     0.00280
 42.690     0.00279
 42.700     0.00277
 42.710     0.00285
 42.720     0.00246
 42.730     0.00300
 42.740     0.00272
 42.750     0.00278
 42.760     0.00266
 42.770     0.00248
 42.780     0.00257
 42.790     0.00269
 42.800     0.00241
 42.810     0.00252
 42.820     0.00233
 42.830     0.00255
 42.840     0.00273
 42.850     0.00263
 42.860     0.00289
 42.870     0.00256
 42.880     0.00249
 42.890     0.00276
 42.900     0.00262
 42.910     0.00232
 42.920     0.00260
 42.930     0.00243
 42.940     0.00224
 42.950     0.00220
 42.960     0.00232
 42.970     0.00240
 42.980     0.00226
 42.990     0.00234
 43.000     0.00245
 43.010     0.00245
 43.020     0.00233
 43.030     0.00236
 43.040     0.00255
 43.050     0.00232
 43.060     0.00223
 43.070     0.00226
 43.080     0.00227
 43.090     0.00223
 43.100     0.00236
 43.110     0.00219
 43.120     0.00196
 43.130     0.00222
 43.140     0.00207
 43.150     0.00213
 43.160     0.00213
 43.170     0.00213
 43.180     0.00237
 43.190     0.00209
 43.200     0.00217
 43.210     0.00200
 43.220     0.00200
 43.230     0.00203
 43.240     0.00201
 43.250     0.00207
 43.260     0.00199
 43.270     0.00223
 43.280     0.00203
 43.290     0.00226
 43.300     0.00199
 43.310     0.00184
 43.320     0.00206
 43.330     0.00204
 43.340     0.00186
 43.350     0.00185
 43.360     0.00184
 43.370     0.00202
 43.380     0.00196
 43.390     0.00180
 43.400     0.00182
 43.410     0.00189
 43.420     0.00184
 43.430     0.00183
 43.440     0.00200
 43.450     0.00182
 43.460     0.00169
 43.470     0.00193
 43.480     0.00188
 43.490     0.00177
 43.500     0.00202
 43.510     0.00168
 43.520     0.00170
 43.530     0.00171
 43.540     0.00164
 43.550     0.00177
 43.560     0.00150
 43.570     0.00172
 43.580     0.00182
 43.590     0.00154
 43.600     0.00166
 43.610     0.00153
 43.620     0.00165
 43.630     0.00173
 43.640     0.00157
 43.650     0.00167
 43.660     0.00172
 43.670     0.00145
 43.680     0.00156
 43.690     0.00183
 43.700     0.00142
 43.710     0.00164
 43.720     0.00149
 43.730     0.00166
 43.740     0.00145
 43.750     0.00144
 43.760     0.00157
 43.770     0.00155
 43.780     0.00153
 43.790     0.00155
 43.800     0.00150
 43.810     0.00157
 43.820     0.00154
 43.830     0.00153
 43.840     0.00129
 43.850     0.00159
 43.860     0.00133
 43.870     0.00139
 43.880     0.00146
 43.890     0.00121
 43.900     0.00143
 43.910     0.00142
 43.920     0.00129
 43.930     0.00151
 43.940     0.00139
 43.950     0.00122
 43.960     0.00134
 43.970     0.00139
 43.980     0.00132
 43.990     0.00128
 44.000     0.00138
 44.010     0.00112
 44.020     0.00136
 44.030     0.00114
 44.040     0.00131
 44.050     0.00122
 44.060     0.00133
 44.070     0.00132
 44.080     0.00112
 44.090     0.00127
 44.100     0.00136
 44.110     0.00118
 44.120     0.00116
 44.130     0.00122
 44.140     0.00116
 44.150     0.00127
 44.160     0.00131
 44.170     0.00121
 44.180     0.00105
 44.190     0.00115
 44.200     0.00132
 44.210     0.00118
 44.220     0.00086
 44.230     0.00116
 44.240     0.00111
 44.250     0.00140
 44.260     0.00113
 44.270     0.00106
 44.280     0.00103
 44.290     0.00106
 44.300     0.00106
 44.310     0.00106
 44.320     0.00112
 44.330     0.00113
 44.340     0.00106
 44.350     0.00103
 44.360     0.00101
 44.370     0.00116
 44.380     0.00119
 44.390     0.00113
 44.400     0.00102
 44.410     0.00101
 44.420     0.00104
 44.430     0.00116
 44.440     0.00104
 44.450     0.00118
 44.460     0.00106
 44.470     0.00091
 44.480     0.00103
 44.490     0.00094
 44.500     0.00083
 44.510     0.00104
 44.520     0.00091
 44.530     0.00097
 44.540     0.00099
 44.550     0.00086
 44.560     0.00086
 44.570     0.00094
 44.580     0.00109
 44.590     0.00081
 44.600     0.00101
 44.610     0.00090
 44.620     0.00088
 44.630     0.00102
 44.640     0.00088
 44.650     0.00095
 44.660     0.00088
 44.670     0.00090
 44.680     0.00096
 44.690     0.00090
 44.700     0.00082
 44.710     0.00094
 44.720     0.00070
 44.730     0.00103
 44.740     0.00080
 44.750     0.00082
 44.760     0.00085
 44.770     0.00078
 44.780     0.00098
 44.790     0.00086
 44.800     0.00078
 44.810     0.00077
 44.820     0.00088
 44.830     0.00070
 44.840     0.00094
 44.850     0.00073
 44.860     0.00076
 44.870     0.00076
 44.880     0.00073
 44.890     0.00076
 44.900     0.00092
 44.910     0.00079
 44.920     0.00074
 44.930     0.00061
 44.940     0.00082
 44.950     0.00069
 44.960     0.00068
 44.970     0.00076
 44.980     0.00075
 44.990     0.00073
 45.000     0.00084
 45.010     0.00066
 45.020     0.00076
 45.030     0.00066
 45.040     0.00073
 45.050     0.00061
 45.060     0.00061
 45.070     0.00071
 45.080     0.00063
 45.090     0.00070
 45.100     0.00070
 45.110     0.00063
 45.120     0.00064
 45.130     0.00055
 45.140     0.00060
 45.150     0.00056
 45.160     0.00061
 45.170     0.00049
 45.180     0.00062
 45.190     0.00062
 45.200     0.00064
 45.210     0.00072
 45.220     0.00054
 45.230     0.00057
 45.240     0.00053
 45.250     0.00052
 45.260     0.00066
 45.270     0.00055
 45.280     0.00045
 45.290     0.00043
 45.300     0.00053
 45.310     0.00056
 45.320     0.00059
 45.330     0.00035
 45.340     0.00052
 45.350     0.00041
 45.360     0.00040
 45.370     0.00051
 45.380     0.00047
 45.390     0.00044
 45.400     0.00038
 45.410     0.00040
 45.420     0.00044
 45.430     0.00054
 45.440     0.00048
 45.450     0.00045
 45.460     0.00042
 45.470     0.00040
 45.480     0.00051
 45.490     0.00035
 45.500     0.00039
 45.510     0.00042
 45.520     0.00039
 45.530     0.00036
 45.540     0.00047
 45.550     0.00039
 45.560     0.00049
 45.570     0.00034
 45.580     0.00035
 45.590     0.00044
 45.600     0.00038
 45.610     0.00044
 45.620     0.00037
 45.630     0.00035
 45.640     0.00032
 45.650     0.00032
 45.660     0.00030
 45.670     0.00034
 45.680     0.00036
 45.690     0.00035
 45.700     0.00034
 45.710     0.00034
 45.720     0.00029
 45.730     0.00020
 45.740     0.00027
 45.750     0.00029
 45.760     0.00027
 45.770     0.00031
 45.780     0.00022
 45.790     0.00029
 45.800     0.00027
 45.810     0.00028
 45.820     0.00022
 45.830     0.00024
 45.840     0.00022
 45.850     0.00028
 45.860     0.00020
 45.870     0.00020
 45.880     0.00027
 45.890     0.00025
 45.900     0.00021
 45.910     0.00024
 45.920     0.00022
 45.930     0.00023
 45.940     0.00024
 45.950     0.00019
 45.960     0.00019
 45.970     0.00027
 45.980     0.00018
 45.990     0.00015
 46.000     0.00014
 46.010     0.00013
 46.020     0.00020
 46.030     0.00022
 46.040     0.00013
 46.050     0.00016
 46.060     0.00017
 46.070     0.00013
 46.080     0.00017
 46.090     0.00016
 46.100     0.00017
 46.110     0.00014
 46.120     0.00013
 46.130     0.00014
 46.140     0.00015
 46.150     0.00013
 46.160     0.00012
 46.170     0.00012
 46.180     0.00017
 46.190     0.00017
 46.200     0.00007
 46.210     0.00019
 46.220     0.00012
 46.230     0.00015
 46.240     0.00012
 46.250     0.00015
 46.260     0.00011
 46.270     0.00014
 46.280     0.00012
 46.290     0.00009
 46.300     0.00011
 46.310     0.00014
 46.320     0.00012
 46.330     0.00009
 46.340     0.00005
 46.350     0.00010
 46.360     0.00012
 46.370     0.00015
 46.380     0.00012
 46.390     0.00010
 46.400     0.00012
 46.410     0.00015
 46.420     0.00009
 46.430     0.00007
 46.440     0.00012
 46.450     0.00007
 46.460     0.00008
 46.470     0.00008
 46.480     0.00011
 46.490     0.00007
 46.500     0.00010
 46.510     0.00007
 46.520     0.00006
 46.530     0.00009
 46.540     0.00006
 46.550     0.00011
 46.560     0.00009
 46.570     0.00005
 46.580     0.00005
 46.590     0.00006
 46.600     0.00006
 46.610     0.00006
 46.620     0.00009
 46.630     0.00006
 46.640     0.00007
 46.650     0.00006
 46.660     0.00006
 46.670     0.00006
 46.680     0.00009
 46.690     0.00005
 46.700     0.00006
 46.710     0.00008
 46.720     0.00010
 46.730     0.00004
 46.740     0.00005
 46.750     0.00002
 46.760     0.00004
 46.770     0.00004
 46.780     0.00003
 46.790     0.00001
 46.800     0.00003
 46.810     0.00001
 46.820     0.00003
 46.830     0.00005
 46.840     0.00003
 46.850     0.00004
 46.860     0.00003
 46.870     0.00002
 46.880     0.00003
 46.890     0.00005
 46.900     0.00003
 46.910     0.00002
 46.920     0.00001
 46.930     0.00003
 46.940     0.00003
 46.950     0.00004
 46.960     0.00003
 46.970     0.00001
 46.980     0.00001
 46.990     0.00001
 47.000     0.00003
 47.010     0.00005
 47.020     0.00001
 47.030     0.00001
 47.040     0.00001
 47.050     0.00002
 47.060     0.00003
 47.070     0.00001
 47.080     0.00000
 47.090     0.00001
 47.100     0.00001
 47.110     0.00003
 47.120     0.00003
 47.130     0.00000
 47.140     0.00001
 47.150     0.00001
 47.160     0.00003
 47.170     0.00001
 47.180     0.00001
 47.190     0.00002
 47.200     0.00000
 47.210     0.00000
 47.220     0.00001
 47.230     0.00000
 47.240     0.00001
 47.250     0.00001
 47.260     0.00000
 47.270     0.00000
 47.280     0.00001
 47.290     0.00001
 47.300     0.00001
 47.310     0.00000
 47.320     0.00000
 47.330     0.00001
 47.340     0.00001
 47.350     0.00001
 47.360     0.00001
 47.370     0.00001
 47.380     0.00001
 47.390     0.00000
 47.400     0.00001
 47.410     0.00001
 47.420     0.00001
 47.430     0.00000
 47.440     0.00001
 47.450     0.00000
 47.460     0.00000
 47.470     0.00002
 47.480     0.00000
 47.490     0.00001
 47.500     0.00000
 47.510     0.00000
 47.520     0.00001
 47.530     0.00001
 47.540     0.00001
 47.550     0.00000
 47.560     0.00000
 47.570     0.00000
 47.580     0.00001
 47.590     0.00000
 47.600     0.00000
 47.610     0.00000
 47.620     0.00000
 47.630     0.00001
 47.640     0.00000
 47.650     0.00000
 47.660     0.00000
 47.670     0.00001
 47.680     0.00000
 47.690     0.00000
 47.700     0.00000
 47.710     0.00000
 47.720     0.00000
 47.730     0.00000
 47.740     0.00000
 47.750     0.00000
 47.760     0.00000
 47.770     0.00000
 47.780     0.00001
 47.790     0.00000
 47.800     0.00000
 47.810     0.00000
 47.820     0.00001
 47.830     0.00000
 47.840     0.00001
 47.850     0.00000
 47.860     0.00000
 47.870     0.00000
 47.880     0.00000
 47.890     0.00000
 47.900     0.00001
 47.910     0.00001
 47.920     0.00000
 47.930     0.00000
 47.940     0.00001
 47.950     0.00000
 47.960     0.00000
 47.970     0.00000
 47.980     0.00000
 47.990     0.00000
 48.000     0.00000
 48.010     0.00000
 48.020     0.00000
 48.030     0.00000
 48.040     0.00000
 48.050     0.00001
 48.060     0.00000
 48.070     0.00000
 48.080     0.00000
 48.090     0.00000
 48.100     0.00000
 48.110     0.00000
 48.120     0.00000
 48.130     0.00000
 48.140     0.00000
 48.150     0.00000
 48.160     0.00000
 48.170     0.00000
 48.180     0.00000
 48.190     0.00000
 48.200     0.00000
 48.210     0.00000
 48.220     0.00000
 48.230     0.00000
 48.240     0.00000
 48.250     0.00000
 48.260     0.00000
 48.270     0.00001
 48.280     0.00001
 48.290     0.00000
 48.300     0.00001
 48.310     0.00000
 48.320     0.00000
 48.330     0.00000
 48.340     0.00000
 48.350     0.00000
 48.360     0.00000
 48.370     0.00000
 48.380     0.00000
 48.390     0.00000
 48.400     0.00000
 48.410     0.00000
 48.420     0.00000
 48.430     0.00000
 48.440     0.00000
 48.450     0.00001
 48.460     0.00000
 48.470     0.00000
