  #r(a)       PDF
  0.010     0.00000
  0.020     0.00000
  0.030     0.00000
  0.040     0.00000
  0.050     0.00000
  0.060     0.00000
  0.070     0.00000
  0.080     0.00000
  0.090     0.00000
  0.100     0.00000
  0.110     0.00000
  0.120     0.00000
  0.130     0.00000
  0.140     0.00000
  0.150     0.00000
  0.160     0.00000
  0.170     0.00000
  0.180     0.00000
  0.190     0.00000
  0.200     0.00000
  0.210     0.00000
  0.220     0.00000
  0.230     0.00000
  0.240     0.00000
  0.250     0.00000
  0.260     0.00000
  0.270     0.00000
  0.280     0.00000
  0.290     0.00000
  0.300     0.00000
  0.310     0.00000
  0.320     0.00000
  0.330     0.00000
  0.340     0.00000
  0.350     0.00000
  0.360     0.00000
  0.370     0.00000
  0.380     0.00000
  0.390     0.00000
  0.400     0.00000
  0.410     0.00000
  0.420     0.00000
  0.430     0.00000
  0.440     0.00000
  0.450     0.00000
  0.460     0.00000
  0.470     0.00000
  0.480     0.00000
  0.490     0.00000
  0.500     0.00000
  0.510     0.00000
  0.520     0.00000
  0.530     0.00000
  0.540     0.00000
  0.550     0.00000
  0.560     0.00000
  0.570     0.00000
  0.580     0.00000
  0.590     0.00000
  0.600     0.00000
  0.610     0.00000
  0.620     0.00000
  0.630     0.00000
  0.640     0.00000
  0.650     0.00000
  0.660     0.00000
  0.670     0.00000
  0.680     0.00000
  0.690     0.00000
  0.700     0.00000
  0.710     0.00000
  0.720     0.00000
  0.730     0.00000
  0.740     0.00000
  0.750     0.00000
  0.760     0.00000
  0.770     0.00000
  0.780     0.00000
  0.790     0.00000
  0.800     0.00000
  0.810     0.00000
  0.820     0.00000
  0.830     0.00000
  0.840     0.00000
  0.850     0.00000
  0.860     0.00000
  0.870     0.00000
  0.880     0.00000
  0.890     0.00000
  0.900     0.00000
  0.910     0.00000
  0.920     0.00000
  0.930     0.00000
  0.940     0.00000
  0.950     0.00000
  0.960     0.00000
  0.970     0.00000
  0.980     0.00000
  0.990     0.00000
  1.000     0.00000
  1.010     0.00000
  1.020     0.00000
  1.030     0.00000
  1.040     0.00000
  1.050     0.00000
  1.060     0.00000
  1.070     0.00000
  1.080     0.00000
  1.090     0.00000
  1.100     0.00000
  1.110     0.00000
  1.120     0.00000
  1.130     0.00000
  1.140     0.00000
  1.150     0.00000
  1.160     0.00000
  1.170     0.00000
  1.180     0.00000
  1.190     0.00000
  1.200     0.00000
  1.210     0.00000
  1.220     0.00000
  1.230     0.00000
  1.240     0.00000
  1.250     0.00000
  1.260     0.00000
  1.270     0.00000
  1.280     0.00000
  1.290     0.00000
  1.300     0.00000
  1.310     0.00000
  1.320     0.00000
  1.330     0.00000
  1.340     0.00000
  1.350     0.00000
  1.360     0.00000
  1.370     0.00000
  1.380     0.00000
  1.390     0.00000
  1.400     0.00000
  1.410     0.00000
  1.420     0.00000
  1.430     0.00000
  1.440     0.00000
  1.450     0.00000
  1.460     0.00000
  1.470     0.00000
  1.480     0.00000
  1.490     0.00000
  1.500     0.00000
  1.510     0.00000
  1.520     0.00000
  1.530     0.00000
  1.540     0.00000
  1.550     0.00000
  1.560     0.00000
  1.570     0.00000
  1.580     0.00000
  1.590     0.00000
  1.600     0.00000
  1.610     0.00000
  1.620     0.00000
  1.630     0.00000
  1.640     0.00000
  1.650     0.00000
  1.660     0.00000
  1.670     0.00000
  1.680     0.00000
  1.690     0.00000
  1.700     0.00000
  1.710     0.00000
  1.720     0.00000
  1.730     0.00000
  1.740     0.00000
  1.750     0.00000
  1.760     0.00000
  1.770     0.00000
  1.780     0.00000
  1.790     0.00000
  1.800     0.00000
  1.810     0.00000
  1.820     0.00000
  1.830     0.00000
  1.840     0.00000
  1.850     0.00000
  1.860     0.00000
  1.870     0.00000
  1.880     0.00000
  1.890     0.00000
  1.900     0.00000
  1.910     0.00000
  1.920     0.00000
  1.930     0.00000
  1.940     0.00000
  1.950     0.00000
  1.960     0.00000
  1.970     0.00000
  1.980     0.00000
  1.990     0.00000
  2.000     0.00000
  2.010     0.00000
  2.020     0.00000
  2.030     0.00000
  2.040     0.00000
  2.050     0.00000
  2.060     0.00000
  2.070     0.00000
  2.080     0.00000
  2.090     0.00000
  2.100     0.00000
  2.110     0.00000
  2.120     0.00000
  2.130     0.00000
  2.140     0.00000
  2.150     0.00000
  2.160     0.00000
  2.170     0.00000
  2.180     0.00000
  2.190     0.00010
  2.200     0.00000
  2.210     0.00000
  2.220     0.00000
  2.230     0.00039
  2.240     0.00000
  2.250     0.00000
  2.260     0.00019
  2.270     0.00019
  2.280     0.00029
  2.290     0.00038
  2.300     0.00019
  2.310     0.00047
  2.320     0.00104
  2.330     0.00066
  2.340     0.00084
  2.350     0.00121
  2.360     0.00074
  2.370     0.00258
  2.380     0.00184
  2.390     0.00265
  2.400     0.00310
  2.410     0.00417
  2.420     0.00415
  2.430     0.00549
  2.440     0.00717
  2.450     0.00910
  2.460     0.00977
  2.470     0.01398
  2.480     0.01366
  2.490     0.01658
  2.500     0.02080
  2.510     0.02280
  2.520     0.02644
  2.530     0.02505
  2.540     0.03062
  2.550     0.03196
  2.560     0.03645
  2.570     0.04064
  2.580     0.04023
  2.590     0.04590
  2.600     0.04420
  2.610     0.05148
  2.620     0.05321
  2.630     0.05226
  2.640     0.05463
  2.650     0.05755
  2.660     0.06120
  2.670     0.05614
  2.680     0.05723
  2.690     0.05410
  2.700     0.06151
  2.710     0.05378
  2.720     0.05583
  2.730     0.05267
  2.740     0.05319
  2.750     0.04680
  2.760     0.04695
  2.770     0.04528
  2.780     0.04213
  2.790     0.04026
  2.800     0.03769
  2.810     0.03398
  2.820     0.03045
  2.830     0.02996
  2.840     0.02939
  2.850     0.02308
  2.860     0.02277
  2.870     0.02261
  2.880     0.01935
  2.890     0.01860
  2.900     0.01439
  2.910     0.01562
  2.920     0.01197
  2.930     0.01238
  2.940     0.01011
  2.950     0.00978
  2.960     0.00886
  2.970     0.00714
  2.980     0.00697
  2.990     0.00585
  3.000     0.00612
  3.010     0.00581
  3.020     0.00412
  3.030     0.00505
  3.040     0.00252
  3.050     0.00358
  3.060     0.00257
  3.070     0.00235
  3.080     0.00298
  3.090     0.00290
  3.100     0.00275
  3.110     0.00155
  3.120     0.00189
  3.130     0.00209
  3.140     0.00209
  3.150     0.00173
  3.160     0.00201
  3.170     0.00165
  3.180     0.00096
  3.190     0.00192
  3.200     0.00130
  3.210     0.00068
  3.220     0.00075
  3.230     0.00149
  3.240     0.00155
  3.250     0.00148
  3.260     0.00127
  3.270     0.00100
  3.280     0.00113
  3.290     0.00046
  3.300     0.00086
  3.310     0.00125
  3.320     0.00072
  3.330     0.00125
  3.340     0.00098
  3.350     0.00104
  3.360     0.00078
  3.370     0.00084
  3.380     0.00123
  3.390     0.00090
  3.400     0.00103
  3.410     0.00070
  3.420     0.00109
  3.430     0.00121
  3.440     0.00184
  3.450     0.00152
  3.460     0.00177
  3.470     0.00214
  3.480     0.00270
  3.490     0.00244
  3.500     0.00212
  3.510     0.00243
  3.520     0.00242
  3.530     0.00365
  3.540     0.00333
  3.550     0.00339
  3.560     0.00417
  3.570     0.00441
  3.580     0.00562
  3.590     0.00487
  3.600     0.00570
  3.610     0.00672
  3.620     0.00604
  3.630     0.00710
  3.640     0.00876
  3.650     0.00868
  3.660     0.00902
  3.670     0.00893
  3.680     0.00956
  3.690     0.01173
  3.700     0.01122
  3.710     0.01137
  3.720     0.01392
  3.730     0.01371
  3.740     0.01408
  3.750     0.01515
  3.760     0.01482
  3.770     0.01658
  3.780     0.01653
  3.790     0.01626
  3.800     0.01650
  3.810     0.01503
  3.820     0.01671
  3.830     0.01289
  3.840     0.01462
  3.850     0.01374
  3.860     0.01630
  3.870     0.01581
  3.880     0.01498
  3.890     0.01466
  3.900     0.01423
  3.910     0.01498
  3.920     0.01327
  3.930     0.01190
  3.940     0.01148
  3.950     0.01189
  3.960     0.00993
  3.970     0.00985
  3.980     0.01005
  3.990     0.00876
  4.000     0.00809
  4.010     0.00703
  4.020     0.00625
  4.030     0.00640
  4.040     0.00606
  4.050     0.00502
  4.060     0.00549
  4.070     0.00531
  4.080     0.00573
  4.090     0.00417
  4.100     0.00464
  4.110     0.00473
  4.120     0.00387
  4.130     0.00312
  4.140     0.00296
  4.150     0.00295
  4.160     0.00341
  4.170     0.00252
  4.180     0.00256
  4.190     0.00282
  4.200     0.00307
  4.210     0.00306
  4.220     0.00290
  4.230     0.00253
  4.240     0.00242
  4.250     0.00293
  4.260     0.00318
  4.270     0.00353
  4.280     0.00363
  4.290     0.00331
  4.300     0.00432
  4.310     0.00441
  4.320     0.00531
  4.330     0.00449
  4.340     0.00624
  4.350     0.00608
  4.360     0.00672
  4.370     0.00830
  4.380     0.00793
  4.390     0.00886
  4.400     0.01127
  4.410     0.01263
  4.420     0.01221
  4.430     0.01524
  4.440     0.01673
  4.450     0.01871
  4.460     0.01808
  4.470     0.02087
  4.480     0.02346
  4.490     0.02672
  4.500     0.02467
  4.510     0.02791
  4.520     0.03152
  4.530     0.03242
  4.540     0.03514
  4.550     0.03703
  4.560     0.03987
  4.570     0.04298
  4.580     0.04299
  4.590     0.04427
  4.600     0.04408
  4.610     0.04555
  4.620     0.04971
  4.630     0.04738
  4.640     0.05190
  4.650     0.05131
  4.660     0.05177
  4.670     0.04913
  4.680     0.05066
  4.690     0.05060
  4.700     0.05119
  4.710     0.04881
  4.720     0.04884
  4.730     0.04624
  4.740     0.04638
  4.750     0.04196
  4.760     0.04278
  4.770     0.04457
  4.780     0.04005
  4.790     0.03704
  4.800     0.03701
  4.810     0.03512
  4.820     0.03133
  4.830     0.03009
  4.840     0.02849
  4.850     0.02924
  4.860     0.02558
  4.870     0.02392
  4.880     0.02055
  4.890     0.01917
  4.900     0.01918
  4.910     0.01682
  4.920     0.01634
  4.930     0.01441
  4.940     0.01296
  4.950     0.01338
  4.960     0.01079
  4.970     0.01038
  4.980     0.00961
  4.990     0.00832
  5.000     0.00769
  5.010     0.00885
  5.020     0.00779
  5.030     0.00686
  5.040     0.00759
  5.050     0.00762
  5.060     0.00751
  5.070     0.00728
  5.080     0.00632
  5.090     0.00597
  5.100     0.00857
  5.110     0.00684
  5.120     0.00828
  5.130     0.00788
  5.140     0.00799
  5.150     0.00895
  5.160     0.00906
  5.170     0.01061
  5.180     0.01063
  5.190     0.00998
  5.200     0.01214
  5.210     0.01221
  5.220     0.01189
  5.230     0.01466
  5.240     0.01535
  5.250     0.01494
  5.260     0.01720
  5.270     0.01617
  5.280     0.01643
  5.290     0.01789
  5.300     0.01938
  5.310     0.01996
  5.320     0.02045
  5.330     0.02017
  5.340     0.02124
  5.350     0.02112
  5.360     0.02242
  5.370     0.02189
  5.380     0.02291
  5.390     0.02274
  5.400     0.02096
  5.410     0.02173
  5.420     0.02278
  5.430     0.02101
  5.440     0.02149
  5.450     0.02005
  5.460     0.02029
  5.470     0.02037
  5.480     0.01994
  5.490     0.01751
  5.500     0.01744
  5.510     0.01693
  5.520     0.01496
  5.530     0.01462
  5.540     0.01475
  5.550     0.01272
  5.560     0.01207
  5.570     0.01291
  5.580     0.01159
  5.590     0.01149
  5.600     0.01022
  5.610     0.01013
  5.620     0.01011
  5.630     0.00978
  5.640     0.00829
  5.650     0.00855
  5.660     0.00815
  5.670     0.00802
  5.680     0.00746
  5.690     0.00787
  5.700     0.00866
  5.710     0.00804
  5.720     0.00936
  5.730     0.00854
  5.740     0.01009
  5.750     0.01034
  5.760     0.01043
  5.770     0.01076
  5.780     0.01198
  5.790     0.01177
  5.800     0.01296
  5.810     0.01392
  5.820     0.01472
  5.830     0.01705
  5.840     0.01643
  5.850     0.01860
  5.860     0.02006
  5.870     0.02144
  5.880     0.02285
  5.890     0.02296
  5.900     0.02581
  5.910     0.02681
  5.920     0.02680
  5.930     0.02977
  5.940     0.02947
  5.950     0.03033
  5.960     0.03131
  5.970     0.03276
  5.980     0.03442
  5.990     0.03444
  6.000     0.03649
  6.010     0.03825
  6.020     0.03528
  6.030     0.03667
  6.040     0.03925
  6.050     0.03464
  6.060     0.03494
  6.070     0.03524
  6.080     0.03385
  6.090     0.03380
  6.100     0.03260
  6.110     0.03272
  6.120     0.03221
  6.130     0.03009
  6.140     0.02779
  6.150     0.02956
  6.160     0.02661
  6.170     0.02600
  6.180     0.02422
  6.190     0.02393
  6.200     0.02192
  6.210     0.02058
  6.220     0.02069
  6.230     0.01894
  6.240     0.01684
  6.250     0.01633
  6.260     0.01372
  6.270     0.01405
  6.280     0.01465
  6.290     0.01403
  6.300     0.01152
  6.310     0.01125
  6.320     0.01203
  6.330     0.01115
  6.340     0.00989
  6.350     0.00953
  6.360     0.01038
  6.370     0.00964
  6.380     0.00918
  6.390     0.00988
  6.400     0.00884
  6.410     0.00822
  6.420     0.00984
  6.430     0.00992
  6.440     0.00953
  6.450     0.01040
  6.460     0.00988
  6.470     0.00993
  6.480     0.00944
  6.490     0.01074
  6.500     0.01177
  6.510     0.01208
  6.520     0.01277
  6.530     0.01141
  6.540     0.01176
  6.550     0.01201
  6.560     0.01149
  6.570     0.01267
  6.580     0.01378
  6.590     0.01300
  6.600     0.01371
  6.610     0.01276
  6.620     0.01353
  6.630     0.01295
  6.640     0.01241
  6.650     0.01400
  6.660     0.01194
  6.670     0.01229
  6.680     0.01171
  6.690     0.01225
  6.700     0.01226
  6.710     0.01231
  6.720     0.01242
  6.730     0.01188
  6.740     0.01242
  6.750     0.01233
  6.760     0.01164
  6.770     0.01262
  6.780     0.01147
  6.790     0.01323
  6.800     0.01391
  6.810     0.01344
  6.820     0.01445
  6.830     0.01587
  6.840     0.01492
  6.850     0.01681
  6.860     0.01746
  6.870     0.01816
  6.880     0.01941
  6.890     0.01985
  6.900     0.02068
  6.910     0.02527
  6.920     0.02510
  6.930     0.02753
  6.940     0.02686
  6.950     0.02940
  6.960     0.03152
  6.970     0.03380
  6.980     0.03563
  6.990     0.03689
  7.000     0.04039
  7.010     0.04214
  7.020     0.04598
  7.030     0.04610
  7.040     0.04823
  7.050     0.04835
  7.060     0.05336
  7.070     0.05140
  7.080     0.05864
  7.090     0.05495
  7.100     0.05807
  7.110     0.05649
  7.120     0.05776
  7.130     0.06172
  7.140     0.05894
  7.150     0.05871
  7.160     0.05918
  7.170     0.05617
  7.180     0.05435
  7.190     0.05309
  7.200     0.05396
  7.210     0.05195
  7.220     0.05296
  7.230     0.05114
  7.240     0.04675
  7.250     0.04518
  7.260     0.04388
  7.270     0.04028
  7.280     0.03974
  7.290     0.03768
  7.300     0.03625
  7.310     0.03426
  7.320     0.03128
  7.330     0.03053
  7.340     0.02977
  7.350     0.02705
  7.360     0.02544
  7.370     0.02446
  7.380     0.02256
  7.390     0.02235
  7.400     0.02008
  7.410     0.01881
  7.420     0.01758
  7.430     0.01732
  7.440     0.01583
  7.450     0.01607
  7.460     0.01535
  7.470     0.01337
  7.480     0.01271
  7.490     0.01196
  7.500     0.01320
  7.510     0.01242
  7.520     0.01130
  7.530     0.01297
  7.540     0.01185
  7.550     0.01230
  7.560     0.01168
  7.570     0.01106
  7.580     0.01075
  7.590     0.01019
  7.600     0.01029
  7.610     0.01025
  7.620     0.01006
  7.630     0.01137
  7.640     0.01084
  7.650     0.01088
  7.660     0.01081
  7.670     0.01026
  7.680     0.01007
  7.690     0.01037
  7.700     0.01047
  7.710     0.01154
  7.720     0.01098
  7.730     0.01052
  7.740     0.01042
  7.750     0.01063
  7.760     0.01126
  7.770     0.01139
  7.780     0.01211
  7.790     0.01170
  7.800     0.01244
  7.810     0.01273
  7.820     0.01352
  7.830     0.01353
  7.840     0.01460
  7.850     0.01564
  7.860     0.01612
  7.870     0.01708
  7.880     0.01866
  7.890     0.01894
  7.900     0.01947
  7.910     0.02124
  7.920     0.02158
  7.930     0.02361
  7.940     0.02444
  7.950     0.02674
  7.960     0.02605
  7.970     0.02936
  7.980     0.03009
  7.990     0.03057
  8.000     0.03029
  8.010     0.03121
  8.020     0.03381
  8.030     0.03524
  8.040     0.03416
  8.050     0.03569
  8.060     0.03657
  8.070     0.03737
  8.080     0.03664
  8.090     0.03725
  8.100     0.03696
  8.110     0.03621
  8.120     0.03800
  8.130     0.03819
  8.140     0.03605
  8.150     0.03628
  8.160     0.03529
  8.170     0.03472
  8.180     0.03307
  8.190     0.03460
  8.200     0.03155
  8.210     0.03151
  8.220     0.03036
  8.230     0.03061
  8.240     0.02814
  8.250     0.02906
  8.260     0.02815
  8.270     0.02920
  8.280     0.02742
  8.290     0.02628
  8.300     0.02622
  8.310     0.02519
  8.320     0.02461
  8.330     0.02395
  8.340     0.02353
  8.350     0.02460
  8.360     0.02326
  8.370     0.02441
  8.380     0.02527
  8.390     0.02409
  8.400     0.02424
  8.410     0.02484
  8.420     0.02582
  8.430     0.02600
  8.440     0.02514
  8.450     0.02545
  8.460     0.02516
  8.470     0.02606
  8.480     0.02695
  8.490     0.02602
  8.500     0.02625
  8.510     0.02729
  8.520     0.02619
  8.530     0.02626
  8.540     0.02610
  8.550     0.02591
  8.560     0.02588
  8.570     0.02636
  8.580     0.02458
  8.590     0.02584
  8.600     0.02434
  8.610     0.02426
  8.620     0.02274
  8.630     0.02410
  8.640     0.02350
  8.650     0.02251
  8.660     0.02382
  8.670     0.02188
  8.680     0.02195
  8.690     0.02168
  8.700     0.02240
  8.710     0.02120
  8.720     0.02190
  8.730     0.02100
  8.740     0.02108
  8.750     0.02083
  8.760     0.02115
  8.770     0.02188
  8.780     0.02250
  8.790     0.02063
  8.800     0.02183
  8.810     0.02165
  8.820     0.02163
  8.830     0.02279
  8.840     0.02343
  8.850     0.02276
  8.860     0.02286
  8.870     0.02296
  8.880     0.02480
  8.890     0.02578
  8.900     0.02507
  8.910     0.02367
  8.920     0.02484
  8.930     0.02520
  8.940     0.02481
  8.950     0.02559
  8.960     0.02458
  8.970     0.02521
  8.980     0.02555
  8.990     0.02399
  9.000     0.02484
  9.010     0.02333
  9.020     0.02289
  9.030     0.02393
  9.040     0.02405
  9.050     0.02265
  9.060     0.02250
  9.070     0.02284
  9.080     0.02243
  9.090     0.02216
  9.100     0.02060
  9.110     0.02012
  9.120     0.02065
  9.130     0.02044
  9.140     0.02147
  9.150     0.02264
  9.160     0.02061
  9.170     0.02154
  9.180     0.02083
  9.190     0.02268
  9.200     0.02197
  9.210     0.02055
  9.220     0.02330
  9.230     0.02242
  9.240     0.02396
  9.250     0.02239
  9.260     0.02409
  9.270     0.02433
  9.280     0.02722
  9.290     0.02493
  9.300     0.02624
  9.310     0.02551
  9.320     0.02661
  9.330     0.02623
  9.340     0.02660
  9.350     0.02692
  9.360     0.02724
  9.370     0.02854
  9.380     0.02828
  9.390     0.02788
  9.400     0.02855
  9.410     0.02849
  9.420     0.02934
  9.430     0.03017
  9.440     0.02912
  9.450     0.03159
  9.460     0.03220
  9.470     0.03203
  9.480     0.03308
  9.490     0.03221
  9.500     0.03439
  9.510     0.03669
  9.520     0.03624
  9.530     0.03575
  9.540     0.03745
  9.550     0.04153
  9.560     0.04208
  9.570     0.04379
  9.580     0.04404
  9.590     0.04530
  9.600     0.04750
  9.610     0.04855
  9.620     0.05002
  9.630     0.05108
  9.640     0.05245
  9.650     0.05086
  9.660     0.05472
  9.670     0.05604
  9.680     0.05666
  9.690     0.05678
  9.700     0.05731
  9.710     0.05851
  9.720     0.05764
  9.730     0.05776
  9.740     0.05662
  9.750     0.05708
  9.760     0.05702
  9.770     0.05446
  9.780     0.05487
  9.790     0.05276
  9.800     0.05059
  9.810     0.04900
  9.820     0.04733
  9.830     0.04635
  9.840     0.04548
  9.850     0.04406
  9.860     0.04395
  9.870     0.03881
  9.880     0.03862
  9.890     0.03617
  9.900     0.03470
  9.910     0.03184
  9.920     0.03124
  9.930     0.03019
  9.940     0.02682
  9.950     0.02706
  9.960     0.02525
  9.970     0.02301
  9.980     0.02104
  9.990     0.02054
 10.000     0.01932
 10.010     0.01783
 10.020     0.01738
 10.030     0.01529
 10.040     0.01563
 10.050     0.01452
 10.060     0.01533
 10.070     0.01361
 10.080     0.01346
 10.090     0.01263
 10.100     0.01309
 10.110     0.01169
 10.120     0.01172
 10.130     0.01225
 10.140     0.01308
 10.150     0.01262
 10.160     0.01267
 10.170     0.01339
 10.180     0.01380
 10.190     0.01402
 10.200     0.01551
 10.210     0.01592
 10.220     0.01552
 10.230     0.01737
 10.240     0.01741
 10.250     0.01902
 10.260     0.01889
 10.270     0.02026
 10.280     0.02043
 10.290     0.02293
 10.300     0.02270
 10.310     0.02401
 10.320     0.02609
 10.330     0.02627
 10.340     0.02751
 10.350     0.02880
 10.360     0.03031
 10.370     0.03186
 10.380     0.03128
 10.390     0.03100
 10.400     0.03250
 10.410     0.03434
 10.420     0.03380
 10.430     0.03413
 10.440     0.03399
 10.450     0.03452
 10.460     0.03482
 10.470     0.03419
 10.480     0.03428
 10.490     0.03289
 10.500     0.03432
 10.510     0.03333
 10.520     0.03242
 10.530     0.03239
 10.540     0.03182
 10.550     0.03113
 10.560     0.02992
 10.570     0.02991
 10.580     0.02951
 10.590     0.02810
 10.600     0.02783
 10.610     0.02803
 10.620     0.02656
 10.630     0.02648
 10.640     0.02310
 10.650     0.02499
 10.660     0.02339
 10.670     0.02279
 10.680     0.02152
 10.690     0.02157
 10.700     0.02161
 10.710     0.02089
 10.720     0.02087
 10.730     0.02122
 10.740     0.02089
 10.750     0.01968
 10.760     0.01952
 10.770     0.01794
 10.780     0.01940
 10.790     0.01810
 10.800     0.01930
 10.810     0.01894
 10.820     0.01860
 10.830     0.01816
 10.840     0.02111
 10.850     0.01970
 10.860     0.02038
 10.870     0.01936
 10.880     0.02030
 10.890     0.02105
 10.900     0.02125
 10.910     0.02207
 10.920     0.02345
 10.930     0.02423
 10.940     0.02343
 10.950     0.02474
 10.960     0.02685
 10.970     0.02603
 10.980     0.02734
 10.990     0.02690
 11.000     0.02932
 11.010     0.02933
 11.020     0.02980
 11.030     0.03027
 11.040     0.03102
 11.050     0.03219
 11.060     0.03266
 11.070     0.03253
 11.080     0.03439
 11.090     0.03551
 11.100     0.03579
 11.110     0.03609
 11.120     0.03588
 11.130     0.03506
 11.140     0.03507
 11.150     0.03535
 11.160     0.03477
 11.170     0.03629
 11.180     0.03671
 11.190     0.03607
 11.200     0.03420
 11.210     0.03433
 11.220     0.03396
 11.230     0.03572
 11.240     0.03243
 11.250     0.03321
 11.260     0.03353
 11.270     0.03151
 11.280     0.03264
 11.290     0.03242
 11.300     0.03239
 11.310     0.03286
 11.320     0.03224
 11.330     0.03317
 11.340     0.03264
 11.350     0.03157
 11.360     0.03258
 11.370     0.03227
 11.380     0.03184
 11.390     0.03041
 11.400     0.02940
 11.410     0.03246
 11.420     0.03245
 11.430     0.03195
 11.440     0.03192
 11.450     0.03200
 11.460     0.03098
 11.470     0.03389
 11.480     0.03422
 11.490     0.03212
 11.500     0.03530
 11.510     0.03368
 11.520     0.03471
 11.530     0.03673
 11.540     0.03530
 11.550     0.03653
 11.560     0.03756
 11.570     0.03828
 11.580     0.03932
 11.590     0.04004
 11.600     0.03905
 11.610     0.04003
 11.620     0.04137
 11.630     0.04297
 11.640     0.04250
 11.650     0.04389
 11.660     0.04353
 11.670     0.04443
 11.680     0.04548
 11.690     0.04589
 11.700     0.04833
 11.710     0.04678
 11.720     0.04670
 11.730     0.04909
 11.740     0.04984
 11.750     0.04579
 11.760     0.04786
 11.770     0.04929
 11.780     0.05023
 11.790     0.04728
 11.800     0.04674
 11.810     0.04457
 11.820     0.04601
 11.830     0.04585
 11.840     0.04547
 11.850     0.04438
 11.860     0.04367
 11.870     0.04234
 11.880     0.04131
 11.890     0.04201
 11.900     0.04082
 11.910     0.03976
 11.920     0.03890
 11.930     0.03691
 11.940     0.03757
 11.950     0.03631
 11.960     0.03442
 11.970     0.03443
 11.980     0.03506
 11.990     0.03373
 12.000     0.03190
 12.010     0.03340
 12.020     0.03112
 12.030     0.03017
 12.040     0.03020
 12.050     0.02898
 12.060     0.02990
 12.070     0.02993
 12.080     0.02965
 12.090     0.02930
 12.100     0.02944
 12.110     0.03004
 12.120     0.02919
 12.130     0.02799
 12.140     0.02955
 12.150     0.03012
 12.160     0.02922
 12.170     0.02919
 12.180     0.02867
 12.190     0.02927
 12.200     0.02876
 12.210     0.03083
 12.220     0.03077
 12.230     0.03000
 12.240     0.03081
 12.250     0.03197
 12.260     0.03116
 12.270     0.03109
 12.280     0.03199
 12.290     0.03300
 12.300     0.03171
 12.310     0.03403
 12.320     0.03288
 12.330     0.03282
 12.340     0.03256
 12.350     0.03323
 12.360     0.03309
 12.370     0.03245
 12.380     0.03375
 12.390     0.03250
 12.400     0.03288
 12.410     0.03238
 12.420     0.03306
 12.430     0.03175
 12.440     0.03079
 12.450     0.03103
 12.460     0.03080
 12.470     0.03240
 12.480     0.02942
 12.490     0.03028
 12.500     0.02956
 12.510     0.02934
 12.520     0.02892
 12.530     0.02869
 12.540     0.02936
 12.550     0.02859
 12.560     0.02766
 12.570     0.02694
 12.580     0.02659
 12.590     0.02735
 12.600     0.02688
 12.610     0.02646
 12.620     0.02731
 12.630     0.02623
 12.640     0.02564
 12.650     0.02567
 12.660     0.02580
 12.670     0.02511
 12.680     0.02471
 12.690     0.02481
 12.700     0.02576
 12.710     0.02677
 12.720     0.02640
 12.730     0.02582
 12.740     0.02588
 12.750     0.02680
 12.760     0.02707
 12.770     0.02863
 12.780     0.02720
 12.790     0.02764
 12.800     0.02737
 12.810     0.02772
 12.820     0.02780
 12.830     0.02975
 12.840     0.02908
 12.850     0.03039
 12.860     0.02958
 12.870     0.02946
 12.880     0.02996
 12.890     0.02939
 12.900     0.03035
 12.910     0.02932
 12.920     0.02985
 12.930     0.02964
 12.940     0.02908
 12.950     0.02997
 12.960     0.02861
 12.970     0.02889
 12.980     0.02880
 12.990     0.02789
 13.000     0.02757
 13.010     0.02676
 13.020     0.02632
 13.030     0.02713
 13.040     0.02544
 13.050     0.02684
 13.060     0.02562
 13.070     0.02461
 13.080     0.02285
 13.090     0.02431
 13.100     0.02325
 13.110     0.02322
 13.120     0.02337
 13.130     0.02272
 13.140     0.02273
 13.150     0.02263
 13.160     0.02321
 13.170     0.02276
 13.180     0.02255
 13.190     0.02235
 13.200     0.02380
 13.210     0.02212
 13.220     0.02369
 13.230     0.02430
 13.240     0.02320
 13.250     0.02431
 13.260     0.02427
 13.270     0.02694
 13.280     0.02675
 13.290     0.02844
 13.300     0.02916
 13.310     0.02949
 13.320     0.03140
 13.330     0.03157
 13.340     0.03297
 13.350     0.03336
 13.360     0.03428
 13.370     0.03550
 13.380     0.03539
 13.390     0.03709
 13.400     0.03896
 13.410     0.03912
 13.420     0.03978
 13.430     0.04084
 13.440     0.04110
 13.450     0.04427
 13.460     0.04299
 13.470     0.04297
 13.480     0.04289
 13.490     0.04365
 13.500     0.04372
 13.510     0.04509
 13.520     0.04257
 13.530     0.04328
 13.540     0.04459
 13.550     0.04203
 13.560     0.04348
 13.570     0.04361
 13.580     0.04293
 13.590     0.04230
 13.600     0.04200
 13.610     0.04239
 13.620     0.04155
 13.630     0.03966
 13.640     0.03981
 13.650     0.03898
 13.660     0.03911
 13.670     0.03820
 13.680     0.03736
 13.690     0.03686
 13.700     0.03654
 13.710     0.03682
 13.720     0.03693
 13.730     0.03613
 13.740     0.03709
 13.750     0.03601
 13.760     0.03818
 13.770     0.03735
 13.780     0.03847
 13.790     0.03944
 13.800     0.03762
 13.810     0.03938
 13.820     0.04089
 13.830     0.04061
 13.840     0.03993
 13.850     0.04040
 13.860     0.04189
 13.870     0.04394
 13.880     0.04347
 13.890     0.04461
 13.900     0.04482
 13.910     0.04501
 13.920     0.04833
 13.930     0.04731
 13.940     0.04927
 13.950     0.04898
 13.960     0.05034
 13.970     0.04938
 13.980     0.05063
 13.990     0.05014
 14.000     0.05236
 14.010     0.04993
 14.020     0.05265
 14.030     0.05266
 14.040     0.05061
 14.050     0.05299
 14.060     0.05270
 14.070     0.05237
 14.080     0.05157
 14.090     0.05067
 14.100     0.05170
 14.110     0.05151
 14.120     0.04889
 14.130     0.04993
 14.140     0.05109
 14.150     0.04901
 14.160     0.04881
 14.170     0.04606
 14.180     0.04703
 14.190     0.04671
 14.200     0.04543
 14.210     0.04458
 14.220     0.04349
 14.230     0.04290
 14.240     0.04221
 14.250     0.04284
 14.260     0.04006
 14.270     0.03952
 14.280     0.03928
 14.290     0.03728
 14.300     0.03667
 14.310     0.03704
 14.320     0.03554
 14.330     0.03454
 14.340     0.03348
 14.350     0.03380
 14.360     0.03229
 14.370     0.03126
 14.380     0.03079
 14.390     0.03026
 14.400     0.02879
 14.410     0.02954
 14.420     0.02787
 14.430     0.02891
 14.440     0.02698
 14.450     0.02545
 14.460     0.02386
 14.470     0.02510
 14.480     0.02404
 14.490     0.02330
 14.500     0.02256
 14.510     0.02269
 14.520     0.02190
 14.530     0.02054
 14.540     0.02032
 14.550     0.02042
 14.560     0.01946
 14.570     0.01995
 14.580     0.01932
 14.590     0.01860
 14.600     0.01745
 14.610     0.01657
 14.620     0.01723
 14.630     0.01649
 14.640     0.01581
 14.650     0.01654
 14.660     0.01695
 14.670     0.01561
 14.680     0.01625
 14.690     0.01633
 14.700     0.01580
 14.710     0.01659
 14.720     0.01608
 14.730     0.01663
 14.740     0.01672
 14.750     0.01833
 14.760     0.01895
 14.770     0.01863
 14.780     0.02025
 14.790     0.01997
 14.800     0.02164
 14.810     0.02042
 14.820     0.02251
 14.830     0.02334
 14.840     0.02437
 14.850     0.02416
 14.860     0.02692
 14.870     0.02733
 14.880     0.02852
 14.890     0.02835
 14.900     0.03100
 14.910     0.03117
 14.920     0.03222
 14.930     0.03297
 14.940     0.03351
 14.950     0.03448
 14.960     0.03622
 14.970     0.03700
 14.980     0.03613
 14.990     0.03671
 15.000     0.03847
 15.010     0.03840
 15.020     0.03809
 15.030     0.03793
 15.040     0.03782
 15.050     0.03743
 15.060     0.03858
 15.070     0.03728
 15.080     0.03879
 15.090     0.03707
 15.100     0.03725
 15.110     0.03783
 15.120     0.03642
 15.130     0.03512
 15.140     0.03556
 15.150     0.03509
 15.160     0.03442
 15.170     0.03397
 15.180     0.03249
 15.190     0.03290
 15.200     0.03378
 15.210     0.03251
 15.220     0.03189
 15.230     0.03149
 15.240     0.03146
 15.250     0.03184
 15.260     0.03225
 15.270     0.03068
 15.280     0.03116
 15.290     0.03230
 15.300     0.03268
 15.310     0.03323
 15.320     0.03353
 15.330     0.03390
 15.340     0.03422
 15.350     0.03545
 15.360     0.03568
 15.370     0.03762
 15.380     0.03754
 15.390     0.03812
 15.400     0.03851
 15.410     0.03897
 15.420     0.04102
 15.430     0.04050
 15.440     0.04123
 15.450     0.04076
 15.460     0.04252
 15.470     0.04252
 15.480     0.04325
 15.490     0.04429
 15.500     0.04219
 15.510     0.04538
 15.520     0.04553
 15.530     0.04384
 15.540     0.04414
 15.550     0.04566
 15.560     0.04488
 15.570     0.04554
 15.580     0.04496
 15.590     0.04621
 15.600     0.04565
 15.610     0.04391
 15.620     0.04472
 15.630     0.04299
 15.640     0.04306
 15.650     0.04274
 15.660     0.04303
 15.670     0.04257
 15.680     0.04199
 15.690     0.04075
 15.700     0.04092
 15.710     0.04118
 15.720     0.04084
 15.730     0.04010
 15.740     0.03872
 15.750     0.03793
 15.760     0.03872
 15.770     0.03881
 15.780     0.03809
 15.790     0.03832
 15.800     0.03608
 15.810     0.03638
 15.820     0.03551
 15.830     0.03545
 15.840     0.03475
 15.850     0.03562
 15.860     0.03661
 15.870     0.03406
 15.880     0.03607
 15.890     0.03534
 15.900     0.03463
 15.910     0.03343
 15.920     0.03504
 15.930     0.03450
 15.940     0.03282
 15.950     0.03292
 15.960     0.03479
 15.970     0.03373
 15.980     0.03431
 15.990     0.03288
 16.000     0.03174
 16.010     0.03280
 16.020     0.03354
 16.030     0.03252
 16.040     0.03255
 16.050     0.03190
 16.060     0.03407
 16.070     0.03416
 16.080     0.03380
 16.090     0.03403
 16.100     0.03331
 16.110     0.03544
 16.120     0.03436
 16.130     0.03480
 16.140     0.03509
 16.150     0.03631
 16.160     0.03641
 16.170     0.03811
 16.180     0.03699
 16.190     0.03728
 16.200     0.03937
 16.210     0.03931
 16.220     0.03966
 16.230     0.04023
 16.240     0.04108
 16.250     0.04338
 16.260     0.04228
 16.270     0.04307
 16.280     0.04491
 16.290     0.04417
 16.300     0.04544
 16.310     0.04629
 16.320     0.04584
 16.330     0.04722
 16.340     0.04727
 16.350     0.04835
 16.360     0.04863
 16.370     0.04963
 16.380     0.04816
 16.390     0.04833
 16.400     0.04915
 16.410     0.04770
 16.420     0.04732
 16.430     0.04853
 16.440     0.04859
 16.450     0.04751
 16.460     0.04591
 16.470     0.04735
 16.480     0.04553
 16.490     0.04508
 16.500     0.04558
 16.510     0.04473
 16.520     0.04287
 16.530     0.04381
 16.540     0.04163
 16.550     0.03997
 16.560     0.04073
 16.570     0.03959
 16.580     0.03840
 16.590     0.03746
 16.600     0.03792
 16.610     0.03495
 16.620     0.03446
 16.630     0.03567
 16.640     0.03405
 16.650     0.03298
 16.660     0.03355
 16.670     0.03282
 16.680     0.03248
 16.690     0.03138
 16.700     0.03070
 16.710     0.03120
 16.720     0.02956
 16.730     0.02999
 16.740     0.02960
 16.750     0.02897
 16.760     0.02780
 16.770     0.02854
 16.780     0.02770
 16.790     0.02784
 16.800     0.02847
 16.810     0.02800
 16.820     0.02767
 16.830     0.02738
 16.840     0.02708
 16.850     0.02604
 16.860     0.02643
 16.870     0.02576
 16.880     0.02620
 16.890     0.02531
 16.900     0.02620
 16.910     0.02557
 16.920     0.02446
 16.930     0.02589
 16.940     0.02524
 16.950     0.02565
 16.960     0.02458
 16.970     0.02466
 16.980     0.02459
 16.990     0.02386
 17.000     0.02477
 17.010     0.02404
 17.020     0.02334
 17.030     0.02381
 17.040     0.02374
 17.050     0.02318
 17.060     0.02453
 17.070     0.02431
 17.080     0.02429
 17.090     0.02408
 17.100     0.02456
 17.110     0.02471
 17.120     0.02475
 17.130     0.02484
 17.140     0.02459
 17.150     0.02506
 17.160     0.02516
 17.170     0.02601
 17.180     0.02525
 17.190     0.02556
 17.200     0.02550
 17.210     0.02560
 17.220     0.02545
 17.230     0.02665
 17.240     0.02740
 17.250     0.02751
 17.260     0.02866
 17.270     0.02761
 17.280     0.02857
 17.290     0.02860
 17.300     0.02799
 17.310     0.02802
 17.320     0.02989
 17.330     0.02991
 17.340     0.03106
 17.350     0.03174
 17.360     0.03143
 17.370     0.03236
 17.380     0.03342
 17.390     0.03368
 17.400     0.03393
 17.410     0.03411
 17.420     0.03417
 17.430     0.03416
 17.440     0.03649
 17.450     0.03709
 17.460     0.03643
 17.470     0.03799
 17.480     0.03690
 17.490     0.03888
 17.500     0.03982
 17.510     0.03946
 17.520     0.03982
 17.530     0.04092
 17.540     0.04207
 17.550     0.04252
 17.560     0.04276
 17.570     0.04223
 17.580     0.04395
 17.590     0.04427
 17.600     0.04476
 17.610     0.04420
 17.620     0.04554
 17.630     0.04591
 17.640     0.04592
 17.650     0.04576
 17.660     0.04725
 17.670     0.04603
 17.680     0.04802
 17.690     0.04617
 17.700     0.04620
 17.710     0.04579
 17.720     0.04756
 17.730     0.04648
 17.740     0.04672
 17.750     0.04471
 17.760     0.04611
 17.770     0.04427
 17.780     0.04587
 17.790     0.04354
 17.800     0.04434
 17.810     0.04475
 17.820     0.04333
 17.830     0.04309
 17.840     0.04319
 17.850     0.04395
 17.860     0.04244
 17.870     0.04176
 17.880     0.04323
 17.890     0.04260
 17.900     0.04265
 17.910     0.04242
 17.920     0.04291
 17.930     0.04269
 17.940     0.04168
 17.950     0.04094
 17.960     0.04122
 17.970     0.04254
 17.980     0.04200
 17.990     0.04251
 18.000     0.04183
 18.010     0.04181
 18.020     0.04181
 18.030     0.04379
 18.040     0.04196
 18.050     0.04103
 18.060     0.04111
 18.070     0.04257
 18.080     0.04138
 18.090     0.04227
 18.100     0.04137
 18.110     0.03939
 18.120     0.03941
 18.130     0.03946
 18.140     0.04019
 18.150     0.04005
 18.160     0.03834
 18.170     0.03866
 18.180     0.03795
 18.190     0.03678
 18.200     0.03710
 18.210     0.03675
 18.220     0.03507
 18.230     0.03568
 18.240     0.03589
 18.250     0.03410
 18.260     0.03376
 18.270     0.03406
 18.280     0.03351
 18.290     0.03393
 18.300     0.03287
 18.310     0.03172
 18.320     0.03291
 18.330     0.03185
 18.340     0.03225
 18.350     0.03244
 18.360     0.03154
 18.370     0.03238
 18.380     0.03344
 18.390     0.03222
 18.400     0.03446
 18.410     0.03263
 18.420     0.03319
 18.430     0.03325
 18.440     0.03388
 18.450     0.03384
 18.460     0.03400
 18.470     0.03416
 18.480     0.03442
 18.490     0.03355
 18.500     0.03377
 18.510     0.03370
 18.520     0.03410
 18.530     0.03446
 18.540     0.03350
 18.550     0.03409
 18.560     0.03519
 18.570     0.03535
 18.580     0.03440
 18.590     0.03493
 18.600     0.03398
 18.610     0.03499
 18.620     0.03491
 18.630     0.03462
 18.640     0.03466
 18.650     0.03443
 18.660     0.03483
 18.670     0.03539
 18.680     0.03465
 18.690     0.03578
 18.700     0.03577
 18.710     0.03489
 18.720     0.03626
 18.730     0.03569
 18.740     0.03617
 18.750     0.03662
 18.760     0.03492
 18.770     0.03667
 18.780     0.03655
 18.790     0.03633
 18.800     0.03818
 18.810     0.03789
 18.820     0.03727
 18.830     0.03771
 18.840     0.03608
 18.850     0.03676
 18.860     0.03612
 18.870     0.03807
 18.880     0.03692
 18.890     0.03728
 18.900     0.03711
 18.910     0.03776
 18.920     0.03599
 18.930     0.03689
 18.940     0.03586
 18.950     0.03618
 18.960     0.03561
 18.970     0.03532
 18.980     0.03656
 18.990     0.03549
 19.000     0.03467
 19.010     0.03440
 19.020     0.03493
 19.030     0.03356
 19.040     0.03283
 19.050     0.03365
 19.060     0.03288
 19.070     0.03245
 19.080     0.03195
 19.090     0.03105
 19.100     0.03060
 19.110     0.03015
 19.120     0.03125
 19.130     0.03117
 19.140     0.02983
 19.150     0.03071
 19.160     0.02963
 19.170     0.03042
 19.180     0.03056
 19.190     0.02933
 19.200     0.03044
 19.210     0.03037
 19.220     0.02953
 19.230     0.03092
 19.240     0.02997
 19.250     0.02876
 19.260     0.02995
 19.270     0.03108
 19.280     0.03080
 19.290     0.03120
 19.300     0.03084
 19.310     0.03139
 19.320     0.03223
 19.330     0.03174
 19.340     0.03247
 19.350     0.03279
 19.360     0.03204
 19.370     0.03191
 19.380     0.03306
 19.390     0.03512
 19.400     0.03350
 19.410     0.03363
 19.420     0.03368
 19.430     0.03350
 19.440     0.03358
 19.450     0.03588
 19.460     0.03419
 19.470     0.03451
 19.480     0.03462
 19.490     0.03516
 19.500     0.03566
 19.510     0.03695
 19.520     0.03495
 19.530     0.03682
 19.540     0.03552
 19.550     0.03535
 19.560     0.03473
 19.570     0.03565
 19.580     0.03556
 19.590     0.03516
 19.600     0.03607
 19.610     0.03558
 19.620     0.03523
 19.630     0.03546
 19.640     0.03571
 19.650     0.03538
 19.660     0.03449
 19.670     0.03465
 19.680     0.03412
 19.690     0.03709
 19.700     0.03507
 19.710     0.03506
 19.720     0.03509
 19.730     0.03604
 19.740     0.03563
 19.750     0.03660
 19.760     0.03518
 19.770     0.03658
 19.780     0.03681
 19.790     0.03680
 19.800     0.03743
 19.810     0.03783
 19.820     0.03732
 19.830     0.03738
 19.840     0.03758
 19.850     0.03758
 19.860     0.03871
 19.870     0.03890
 19.880     0.03896
 19.890     0.03909
 19.900     0.03961
 19.910     0.03970
 19.920     0.04171
 19.930     0.03962
 19.940     0.03945
 19.950     0.03938
 19.960     0.04011
 19.970     0.03970
 19.980     0.03971
 19.990     0.04020
 20.000     0.04038
 20.010     0.03926
 20.020     0.04034
 20.030     0.04028
 20.040     0.03995
 20.050     0.03923
 20.060     0.03948
 20.070     0.03903
 20.080     0.03922
 20.090     0.03810
 20.100     0.03677
 20.110     0.03749
 20.120     0.03706
 20.130     0.03632
 20.140     0.03611
 20.150     0.03700
 20.160     0.03537
 20.170     0.03550
 20.180     0.03557
 20.190     0.03585
 20.200     0.03475
 20.210     0.03470
 20.220     0.03322
 20.230     0.03416
 20.240     0.03365
 20.250     0.03415
 20.260     0.03341
 20.270     0.03344
 20.280     0.03422
 20.290     0.03456
 20.300     0.03474
 20.310     0.03475
 20.320     0.03452
 20.330     0.03565
 20.340     0.03529
 20.350     0.03572
 20.360     0.03532
 20.370     0.03635
 20.380     0.03594
 20.390     0.03703
 20.400     0.03581
 20.410     0.03553
 20.420     0.03676
 20.430     0.03729
 20.440     0.03744
 20.450     0.03613
 20.460     0.03675
 20.470     0.03702
 20.480     0.03814
 20.490     0.03655
 20.500     0.03699
 20.510     0.03841
 20.520     0.03759
 20.530     0.03728
 20.540     0.03692
 20.550     0.03767
 20.560     0.03702
 20.570     0.03737
 20.580     0.03709
 20.590     0.03706
 20.600     0.03825
 20.610     0.03782
 20.620     0.03711
 20.630     0.03576
 20.640     0.03714
 20.650     0.03590
 20.660     0.03638
 20.670     0.03758
 20.680     0.03790
 20.690     0.03598
 20.700     0.03742
 20.710     0.03610
 20.720     0.03520
 20.730     0.03677
 20.740     0.03576
 20.750     0.03688
 20.760     0.03606
 20.770     0.03538
 20.780     0.03753
 20.790     0.03591
 20.800     0.03572
 20.810     0.03538
 20.820     0.03615
 20.830     0.03485
 20.840     0.03585
 20.850     0.03541
 20.860     0.03681
 20.870     0.03621
 20.880     0.03474
 20.890     0.03589
 20.900     0.03640
 20.910     0.03694
 20.920     0.03564
 20.930     0.03680
 20.940     0.03530
 20.950     0.03665
 20.960     0.03621
 20.970     0.03636
 20.980     0.03605
 20.990     0.03695
 21.000     0.03655
 21.010     0.03610
 21.020     0.03564
 21.030     0.03608
 21.040     0.03580
 21.050     0.03542
 21.060     0.03582
 21.070     0.03561
 21.080     0.03592
 21.090     0.03672
 21.100     0.03623
 21.110     0.03522
 21.120     0.03408
 21.130     0.03494
 21.140     0.03384
 21.150     0.03451
 21.160     0.03436
 21.170     0.03562
 21.180     0.03332
 21.190     0.03381
 21.200     0.03423
 21.210     0.03345
 21.220     0.03265
 21.230     0.03466
 21.240     0.03480
 21.250     0.03361
 21.260     0.03461
 21.270     0.03445
 21.280     0.03565
 21.290     0.03413
 21.300     0.03449
 21.310     0.03509
 21.320     0.03602
 21.330     0.03468
 21.340     0.03382
 21.350     0.03425
 21.360     0.03412
 21.370     0.03412
 21.380     0.03482
 21.390     0.03548
 21.400     0.03501
 21.410     0.03315
 21.420     0.03431
 21.430     0.03419
 21.440     0.03327
 21.450     0.03282
 21.460     0.03314
 21.470     0.03226
 21.480     0.03140
 21.490     0.03279
 21.500     0.03092
 21.510     0.03002
 21.520     0.03059
 21.530     0.02963
 21.540     0.03071
 21.550     0.02975
 21.560     0.02990
 21.570     0.02843
 21.580     0.02773
 21.590     0.02871
 21.600     0.02735
 21.610     0.02735
 21.620     0.02696
 21.630     0.02717
 21.640     0.02760
 21.650     0.02664
 21.660     0.02737
 21.670     0.02630
 21.680     0.02649
 21.690     0.02558
 21.700     0.02634
 21.710     0.02579
 21.720     0.02750
 21.730     0.02651
 21.740     0.02681
 21.750     0.02692
 21.760     0.02689
 21.770     0.02808
 21.780     0.02810
 21.790     0.02740
 21.800     0.02907
 21.810     0.02830
 21.820     0.02903
 21.830     0.03025
 21.840     0.03056
 21.850     0.03101
 21.860     0.03067
 21.870     0.03210
 21.880     0.03396
 21.890     0.03304
 21.900     0.03403
 21.910     0.03292
 21.920     0.03591
 21.930     0.03599
 21.940     0.03641
 21.950     0.03755
 21.960     0.03827
 21.970     0.03895
 21.980     0.03927
 21.990     0.03900
 22.000     0.03985
 22.010     0.04006
 22.020     0.04056
 22.030     0.04144
 22.040     0.04087
 22.050     0.04218
 22.060     0.04172
 22.070     0.04123
 22.080     0.04355
 22.090     0.04302
 22.100     0.04215
 22.110     0.04411
 22.120     0.04348
 22.130     0.04193
 22.140     0.04288
 22.150     0.04196
 22.160     0.04229
 22.170     0.04137
 22.180     0.04144
 22.190     0.04168
 22.200     0.04232
 22.210     0.04071
 22.220     0.04154
 22.230     0.04153
 22.240     0.03962
 22.250     0.04074
 22.260     0.03965
 22.270     0.03920
 22.280     0.03936
 22.290     0.03988
 22.300     0.03856
 22.310     0.03853
 22.320     0.03794
 22.330     0.03748
 22.340     0.03761
 22.350     0.03714
 22.360     0.03660
 22.370     0.03632
 22.380     0.03660
 22.390     0.03551
 22.400     0.03448
 22.410     0.03433
 22.420     0.03518
 22.430     0.03465
 22.440     0.03387
 22.450     0.03352
 22.460     0.03261
 22.470     0.03266
 22.480     0.03286
 22.490     0.03228
 22.500     0.03225
 22.510     0.03076
 22.520     0.03146
 22.530     0.03027
 22.540     0.02974
 22.550     0.02953
 22.560     0.02950
 22.570     0.03051
 22.580     0.02895
 22.590     0.02892
 22.600     0.02815
 22.610     0.02867
 22.620     0.02773
 22.630     0.02776
 22.640     0.02792
 22.650     0.02780
 22.660     0.02825
 22.670     0.02775
 22.680     0.02698
 22.690     0.02764
 22.700     0.02741
 22.710     0.02702
 22.720     0.02706
 22.730     0.02755
 22.740     0.02670
 22.750     0.02806
 22.760     0.02852
 22.770     0.02739
 22.780     0.02879
 22.790     0.02854
 22.800     0.02917
 22.810     0.02981
 22.820     0.03028
 22.830     0.03011
 22.840     0.02974
 22.850     0.03072
 22.860     0.03272
 22.870     0.03213
 22.880     0.03239
 22.890     0.03275
 22.900     0.03418
 22.910     0.03362
 22.920     0.03526
 22.930     0.03590
 22.940     0.03634
 22.950     0.03614
 22.960     0.03664
 22.970     0.03630
 22.980     0.03806
 22.990     0.03876
 23.000     0.03849
 23.010     0.03804
 23.020     0.03865
 23.030     0.03995
 23.040     0.04006
 23.050     0.03819
 23.060     0.03946
 23.070     0.04056
 23.080     0.03983
 23.090     0.04010
 23.100     0.03984
 23.110     0.03976
 23.120     0.03983
 23.130     0.04047
 23.140     0.04044
 23.150     0.04004
 23.160     0.04056
 23.170     0.03952
 23.180     0.03921
 23.190     0.03871
 23.200     0.04073
 23.210     0.03904
 23.220     0.03848
 23.230     0.03927
 23.240     0.04006
 23.250     0.03806
 23.260     0.03894
 23.270     0.03805
 23.280     0.03793
 23.290     0.03727
 23.300     0.03827
 23.310     0.03817
 23.320     0.03864
 23.330     0.03790
 23.340     0.03737
 23.350     0.03748
 23.360     0.03748
 23.370     0.03770
 23.380     0.03733
 23.390     0.03638
 23.400     0.03594
 23.410     0.03572
 23.420     0.03524
 23.430     0.03580
 23.440     0.03617
 23.450     0.03703
 23.460     0.03609
 23.470     0.03618
 23.480     0.03416
 23.490     0.03621
 23.500     0.03480
 23.510     0.03552
 23.520     0.03529
 23.530     0.03409
 23.540     0.03435
 23.550     0.03447
 23.560     0.03422
 23.570     0.03434
 23.580     0.03383
 23.590     0.03258
 23.600     0.03176
 23.610     0.03218
 23.620     0.03178
 23.630     0.03195
 23.640     0.03121
 23.650     0.03125
 23.660     0.03021
 23.670     0.03120
 23.680     0.02943
 23.690     0.02905
 23.700     0.02832
 23.710     0.02884
 23.720     0.02798
 23.730     0.02674
 23.740     0.02713
 23.750     0.02738
 23.760     0.02713
 23.770     0.02666
 23.780     0.02589
 23.790     0.02558
 23.800     0.02518
 23.810     0.02522
 23.820     0.02501
 23.830     0.02512
 23.840     0.02557
 23.850     0.02452
 23.860     0.02542
 23.870     0.02499
 23.880     0.02477
 23.890     0.02472
 23.900     0.02500
 23.910     0.02455
 23.920     0.02473
 23.930     0.02401
 23.940     0.02505
 23.950     0.02452
 23.960     0.02405
 23.970     0.02574
 23.980     0.02499
 23.990     0.02526
 24.000     0.02483
 24.010     0.02448
 24.020     0.02539
 24.030     0.02485
 24.040     0.02545
 24.050     0.02491
 24.060     0.02667
 24.070     0.02611
 24.080     0.02671
 24.090     0.02648
 24.100     0.02602
 24.110     0.02752
 24.120     0.02759
 24.130     0.02783
 24.140     0.02731
 24.150     0.02903
 24.160     0.02871
 24.170     0.03002
 24.180     0.02853
 24.190     0.02911
 24.200     0.03022
 24.210     0.03010
 24.220     0.02960
 24.230     0.03093
 24.240     0.03104
 24.250     0.03182
 24.260     0.03139
 24.270     0.03245
 24.280     0.03290
 24.290     0.03287
 24.300     0.03339
 24.310     0.03364
 24.320     0.03403
 24.330     0.03470
 24.340     0.03506
 24.350     0.03456
 24.360     0.03490
 24.370     0.03577
 24.380     0.03458
 24.390     0.03531
 24.400     0.03611
 24.410     0.03599
 24.420     0.03522
 24.430     0.03612
 24.440     0.03517
 24.450     0.03636
 24.460     0.03747
 24.470     0.03639
 24.480     0.03756
 24.490     0.03540
 24.500     0.03683
 24.510     0.03661
 24.520     0.03575
 24.530     0.03764
 24.540     0.03664
 24.550     0.03725
 24.560     0.03737
 24.570     0.03685
 24.580     0.03707
 24.590     0.03706
 24.600     0.03640
 24.610     0.03714
 24.620     0.03690
 24.630     0.03607
 24.640     0.03594
 24.650     0.03603
 24.660     0.03685
 24.670     0.03631
 24.680     0.03607
 24.690     0.03600
 24.700     0.03587
 24.710     0.03561
 24.720     0.03575
 24.730     0.03535
 24.740     0.03573
 24.750     0.03547
 24.760     0.03452
 24.770     0.03578
 24.780     0.03544
 24.790     0.03476
 24.800     0.03523
 24.810     0.03528
 24.820     0.03448
 24.830     0.03460
 24.840     0.03434
 24.850     0.03484
 24.860     0.03394
 24.870     0.03401
 24.880     0.03384
 24.890     0.03477
 24.900     0.03555
 24.910     0.03432
 24.920     0.03391
 24.930     0.03376
 24.940     0.03419
 24.950     0.03245
 24.960     0.03455
 24.970     0.03341
 24.980     0.03394
 24.990     0.03305
 25.000     0.03312
 25.010     0.03279
 25.020     0.03298
 25.030     0.03216
 25.040     0.03303
 25.050     0.03253
 25.060     0.03338
 25.070     0.03201
 25.080     0.03243
 25.090     0.03215
 25.100     0.03171
 25.110     0.03271
 25.120     0.03232
 25.130     0.03069
 25.140     0.03197
 25.150     0.03072
 25.160     0.03118
 25.170     0.03057
 25.180     0.03076
 25.190     0.03132
 25.200     0.03058
 25.210     0.03180
 25.220     0.03104
 25.230     0.03011
 25.240     0.03044
 25.250     0.03004
 25.260     0.03004
 25.270     0.03058
 25.280     0.02939
 25.290     0.02962
 25.300     0.02937
 25.310     0.02937
 25.320     0.02993
 25.330     0.02942
 25.340     0.02990
 25.350     0.02948
 25.360     0.02972
 25.370     0.02971
 25.380     0.02998
 25.390     0.02967
 25.400     0.02961
 25.410     0.02876
 25.420     0.03085
 25.430     0.02955
 25.440     0.02956
 25.450     0.03016
 25.460     0.03085
 25.470     0.03062
 25.480     0.02978
 25.490     0.03097
 25.500     0.03091
 25.510     0.03187
 25.520     0.03017
 25.530     0.03056
 25.540     0.03155
 25.550     0.03150
 25.560     0.03173
 25.570     0.03110
 25.580     0.03228
 25.590     0.03248
 25.600     0.03247
 25.610     0.03261
 25.620     0.03185
 25.630     0.03412
 25.640     0.03306
 25.650     0.03285
 25.660     0.03311
 25.670     0.03271
 25.680     0.03370
 25.690     0.03338
 25.700     0.03392
 25.710     0.03387
 25.720     0.03210
 25.730     0.03336
 25.740     0.03314
 25.750     0.03186
 25.760     0.03259
 25.770     0.03376
 25.780     0.03309
 25.790     0.03360
 25.800     0.03307
 25.810     0.03243
 25.820     0.03262
 25.830     0.03226
 25.840     0.03232
 25.850     0.03265
 25.860     0.03180
 25.870     0.03228
 25.880     0.03246
 25.890     0.03159
 25.900     0.03111
 25.910     0.03111
 25.920     0.03108
 25.930     0.03048
 25.940     0.03029
 25.950     0.03024
 25.960     0.02992
 25.970     0.02932
 25.980     0.02891
 25.990     0.02825
 26.000     0.02858
 26.010     0.02766
 26.020     0.02729
 26.030     0.02677
 26.040     0.02579
 26.050     0.02591
 26.060     0.02627
 26.070     0.02468
 26.080     0.02599
 26.090     0.02514
 26.100     0.02354
 26.110     0.02398
 26.120     0.02349
 26.130     0.02462
 26.140     0.02281
 26.150     0.02306
 26.160     0.02184
 26.170     0.02254
 26.180     0.02240
 26.190     0.02132
 26.200     0.02120
 26.210     0.02109
 26.220     0.02127
 26.230     0.02133
 26.240     0.02112
 26.250     0.02215
 26.260     0.02126
 26.270     0.02107
 26.280     0.02092
 26.290     0.02088
 26.300     0.02149
 26.310     0.02217
 26.320     0.02206
 26.330     0.02295
 26.340     0.02226
 26.350     0.02218
 26.360     0.02271
 26.370     0.02328
 26.380     0.02422
 26.390     0.02422
 26.400     0.02483
 26.410     0.02550
 26.420     0.02600
 26.430     0.02672
 26.440     0.02724
 26.450     0.02779
 26.460     0.02801
 26.470     0.02824
 26.480     0.02992
 26.490     0.02946
 26.500     0.02929
 26.510     0.02980
 26.520     0.03037
 26.530     0.03184
 26.540     0.03209
 26.550     0.03175
 26.560     0.03243
 26.570     0.03358
 26.580     0.03314
 26.590     0.03366
 26.600     0.03440
 26.610     0.03393
 26.620     0.03473
 26.630     0.03386
 26.640     0.03435
 26.650     0.03502
 26.660     0.03429
 26.670     0.03354
 26.680     0.03538
 26.690     0.03578
 26.700     0.03493
 26.710     0.03488
 26.720     0.03398
 26.730     0.03538
 26.740     0.03402
 26.750     0.03406
 26.760     0.03436
 26.770     0.03485
 26.780     0.03379
 26.790     0.03479
 26.800     0.03440
 26.810     0.03466
 26.820     0.03408
 26.830     0.03302
 26.840     0.03220
 26.850     0.03161
 26.860     0.03302
 26.870     0.03146
 26.880     0.03296
 26.890     0.03179
 26.900     0.03179
 26.910     0.03164
 26.920     0.03111
 26.930     0.03158
 26.940     0.03121
 26.950     0.03095
 26.960     0.03087
 26.970     0.02948
 26.980     0.03066
 26.990     0.03013
 27.000     0.03079
 27.010     0.03083
 27.020     0.02887
 27.030     0.02954
 27.040     0.02955
 27.050     0.02942
 27.060     0.02977
 27.070     0.02968
 27.080     0.02972
 27.090     0.02877
 27.100     0.02972
 27.110     0.02901
 27.120     0.03048
 27.130     0.03038
 27.140     0.03041
 27.150     0.03033
 27.160     0.03083
 27.170     0.03056
 27.180     0.02993
 27.190     0.03003
 27.200     0.03095
 27.210     0.03105
 27.220     0.03084
 27.230     0.03065
 27.240     0.03074
 27.250     0.03206
 27.260     0.03162
 27.270     0.03119
 27.280     0.03166
 27.290     0.03157
 27.300     0.03223
 27.310     0.03256
 27.320     0.03285
 27.330     0.03267
 27.340     0.03216
 27.350     0.03257
 27.360     0.03207
 27.370     0.03286
 27.380     0.03236
 27.390     0.03276
 27.400     0.03314
 27.410     0.03252
 27.420     0.03286
 27.430     0.03213
 27.440     0.03181
 27.450     0.03155
 27.460     0.03140
 27.470     0.03156
 27.480     0.03056
 27.490     0.03075
 27.500     0.03048
 27.510     0.03083
 27.520     0.03124
 27.530     0.02969
 27.540     0.02936
 27.550     0.02968
 27.560     0.02968
 27.570     0.02890
 27.580     0.02859
 27.590     0.02902
 27.600     0.02841
 27.610     0.02844
 27.620     0.02798
 27.630     0.02746
 27.640     0.02730
 27.650     0.02757
 27.660     0.02743
 27.670     0.02787
 27.680     0.02651
 27.690     0.02784
 27.700     0.02689
 27.710     0.02640
 27.720     0.02594
 27.730     0.02648
 27.740     0.02562
 27.750     0.02639
 27.760     0.02505
 27.770     0.02568
 27.780     0.02543
 27.790     0.02590
 27.800     0.02551
 27.810     0.02563
 27.820     0.02587
 27.830     0.02554
 27.840     0.02490
 27.850     0.02599
 27.860     0.02550
 27.870     0.02598
 27.880     0.02488
 27.890     0.02483
 27.900     0.02554
 27.910     0.02565
 27.920     0.02560
 27.930     0.02407
 27.940     0.02544
 27.950     0.02596
 27.960     0.02459
 27.970     0.02552
 27.980     0.02533
 27.990     0.02528
 28.000     0.02509
 28.010     0.02508
 28.020     0.02533
 28.030     0.02430
 28.040     0.02519
 28.050     0.02472
 28.060     0.02541
 28.070     0.02508
 28.080     0.02534
 28.090     0.02474
 28.100     0.02538
 28.110     0.02465
 28.120     0.02489
 28.130     0.02480
 28.140     0.02469
 28.150     0.02411
 28.160     0.02410
 28.170     0.02446
 28.180     0.02386
 28.190     0.02432
 28.200     0.02388
 28.210     0.02436
 28.220     0.02408
 28.230     0.02467
 28.240     0.02357
 28.250     0.02395
 28.260     0.02422
 28.270     0.02340
 28.280     0.02334
 28.290     0.02401
 28.300     0.02353
 28.310     0.02368
 28.320     0.02372
 28.330     0.02368
 28.340     0.02343
 28.350     0.02301
 28.360     0.02379
 28.370     0.02315
 28.380     0.02264
 28.390     0.02337
 28.400     0.02259
 28.410     0.02392
 28.420     0.02360
 28.430     0.02350
 28.440     0.02315
 28.450     0.02331
 28.460     0.02329
 28.470     0.02335
 28.480     0.02389
 28.490     0.02348
 28.500     0.02342
 28.510     0.02312
 28.520     0.02375
 28.530     0.02401
 28.540     0.02386
 28.550     0.02349
 28.560     0.02398
 28.570     0.02361
 28.580     0.02474
 28.590     0.02359
 28.600     0.02368
 28.610     0.02439
 28.620     0.02420
 28.630     0.02437
 28.640     0.02430
 28.650     0.02483
 28.660     0.02527
 28.670     0.02502
 28.680     0.02589
 28.690     0.02475
 28.700     0.02651
 28.710     0.02643
 28.720     0.02619
 28.730     0.02612
 28.740     0.02688
 28.750     0.02741
 28.760     0.02708
 28.770     0.02809
 28.780     0.02724
 28.790     0.02725
 28.800     0.02935
 28.810     0.02940
 28.820     0.02935
 28.830     0.02907
 28.840     0.02908
 28.850     0.02980
 28.860     0.02942
 28.870     0.03016
 28.880     0.03019
 28.890     0.03060
 28.900     0.03057
 28.910     0.03110
 28.920     0.03077
 28.930     0.03076
 28.940     0.03136
 28.950     0.03073
 28.960     0.03204
 28.970     0.03113
 28.980     0.03139
 28.990     0.03203
 29.000     0.03296
 29.010     0.03245
 29.020     0.03151
 29.030     0.03230
 29.040     0.03163
 29.050     0.03239
 29.060     0.03304
 29.070     0.03281
 29.080     0.03266
 29.090     0.03121
 29.100     0.03106
 29.110     0.03220
 29.120     0.03206
 29.130     0.03209
 29.140     0.03168
 29.150     0.03154
 29.160     0.03114
 29.170     0.03153
 29.180     0.03111
 29.190     0.03238
 29.200     0.03077
 29.210     0.03033
 29.220     0.03018
 29.230     0.02976
 29.240     0.02973
 29.250     0.02858
 29.260     0.02888
 29.270     0.02906
 29.280     0.02766
 29.290     0.02804
 29.300     0.02805
 29.310     0.02761
 29.320     0.02726
 29.330     0.02649
 29.340     0.02663
 29.350     0.02602
 29.360     0.02585
 29.370     0.02553
 29.380     0.02558
 29.390     0.02544
 29.400     0.02512
 29.410     0.02456
 29.420     0.02472
 29.430     0.02366
 29.440     0.02472
 29.450     0.02381
 29.460     0.02311
 29.470     0.02324
 29.480     0.02365
 29.490     0.02311
 29.500     0.02334
 29.510     0.02270
 29.520     0.02277
 29.530     0.02246
 29.540     0.02277
 29.550     0.02194
 29.560     0.02323
 29.570     0.02181
 29.580     0.02212
 29.590     0.02245
 29.600     0.02211
 29.610     0.02233
 29.620     0.02302
 29.630     0.02207
 29.640     0.02268
 29.650     0.02245
 29.660     0.02272
 29.670     0.02205
 29.680     0.02244
 29.690     0.02312
 29.700     0.02298
 29.710     0.02296
 29.720     0.02256
 29.730     0.02292
 29.740     0.02367
 29.750     0.02322
 29.760     0.02288
 29.770     0.02348
 29.780     0.02329
 29.790     0.02351
 29.800     0.02409
 29.810     0.02483
 29.820     0.02420
 29.830     0.02432
 29.840     0.02463
 29.850     0.02493
 29.860     0.02504
 29.870     0.02514
 29.880     0.02424
 29.890     0.02467
 29.900     0.02500
 29.910     0.02515
 29.920     0.02577
 29.930     0.02541
 29.940     0.02578
 29.950     0.02517
 29.960     0.02583
 29.970     0.02602
 29.980     0.02532
 29.990     0.02617
 30.000     0.02584
 30.010     0.02487
 30.020     0.02478
 30.030     0.02552
 30.040     0.02525
 30.050     0.02523
 30.060     0.02503
 30.070     0.02544
 30.080     0.02482
 30.090     0.02491
 30.100     0.02525
 30.110     0.02438
 30.120     0.02480
 30.130     0.02464
 30.140     0.02448
 30.150     0.02357
 30.160     0.02430
 30.170     0.02418
 30.180     0.02506
 30.190     0.02392
 30.200     0.02457
 30.210     0.02352
 30.220     0.02422
 30.230     0.02414
 30.240     0.02442
 30.250     0.02351
 30.260     0.02338
 30.270     0.02384
 30.280     0.02304
 30.290     0.02273
 30.300     0.02222
 30.310     0.02321
 30.320     0.02298
 30.330     0.02250
 30.340     0.02235
 30.350     0.02225
 30.360     0.02231
 30.370     0.02211
 30.380     0.02118
 30.390     0.02213
 30.400     0.02181
 30.410     0.02189
 30.420     0.02141
 30.430     0.02156
 30.440     0.02136
 30.450     0.02144
 30.460     0.02060
 30.470     0.02175
 30.480     0.02073
 30.490     0.02057
 30.500     0.02040
 30.510     0.02075
 30.520     0.02061
 30.530     0.02031
 30.540     0.02059
 30.550     0.02029
 30.560     0.02039
 30.570     0.02003
 30.580     0.02022
 30.590     0.01967
 30.600     0.01979
 30.610     0.02039
 30.620     0.02008
 30.630     0.02016
 30.640     0.02015
 30.650     0.02069
 30.660     0.02022
 30.670     0.02027
 30.680     0.02061
 30.690     0.02015
 30.700     0.02002
 30.710     0.02004
 30.720     0.02050
 30.730     0.02059
 30.740     0.02117
 30.750     0.02010
 30.760     0.02084
 30.770     0.02057
 30.780     0.02022
 30.790     0.02189
 30.800     0.02162
 30.810     0.02138
 30.820     0.02120
 30.830     0.02252
 30.840     0.02163
 30.850     0.02220
 30.860     0.02245
 30.870     0.02209
 30.880     0.02214
 30.890     0.02281
 30.900     0.02288
 30.910     0.02409
 30.920     0.02366
 30.930     0.02396
 30.940     0.02395
 30.950     0.02322
 30.960     0.02379
 30.970     0.02380
 30.980     0.02434
 30.990     0.02405
 31.000     0.02483
 31.010     0.02386
 31.020     0.02484
 31.030     0.02453
 31.040     0.02565
 31.050     0.02466
 31.060     0.02511
 31.070     0.02537
 31.080     0.02499
 31.090     0.02577
 31.100     0.02538
 31.110     0.02646
 31.120     0.02557
 31.130     0.02575
 31.140     0.02631
 31.150     0.02573
 31.160     0.02556
 31.170     0.02644
 31.180     0.02655
 31.190     0.02559
 31.200     0.02523
 31.210     0.02614
 31.220     0.02585
 31.230     0.02527
 31.240     0.02654
 31.250     0.02602
 31.260     0.02557
 31.270     0.02580
 31.280     0.02544
 31.290     0.02611
 31.300     0.02563
 31.310     0.02522
 31.320     0.02525
 31.330     0.02555
 31.340     0.02442
 31.350     0.02508
 31.360     0.02497
 31.370     0.02500
 31.380     0.02506
 31.390     0.02422
 31.400     0.02495
 31.410     0.02481
 31.420     0.02471
 31.430     0.02508
 31.440     0.02465
 31.450     0.02432
 31.460     0.02415
 31.470     0.02402
 31.480     0.02486
 31.490     0.02433
 31.500     0.02443
 31.510     0.02409
 31.520     0.02417
 31.530     0.02359
 31.540     0.02411
 31.550     0.02396
 31.560     0.02385
 31.570     0.02364
 31.580     0.02338
 31.590     0.02382
 31.600     0.02368
 31.610     0.02417
 31.620     0.02339
 31.630     0.02320
 31.640     0.02405
 31.650     0.02330
 31.660     0.02418
 31.670     0.02324
 31.680     0.02276
 31.690     0.02317
 31.700     0.02264
 31.710     0.02395
 31.720     0.02315
 31.730     0.02237
 31.740     0.02232
 31.750     0.02225
 31.760     0.02242
 31.770     0.02319
 31.780     0.02142
 31.790     0.02239
 31.800     0.02156
 31.810     0.02127
 31.820     0.02132
 31.830     0.02086
 31.840     0.02079
 31.850     0.02107
 31.860     0.02090
 31.870     0.02029
 31.880     0.01984
 31.890     0.01986
 31.900     0.02028
 31.910     0.01916
 31.920     0.01936
 31.930     0.01944
 31.940     0.01979
 31.950     0.01894
 31.960     0.01838
 31.970     0.01876
 31.980     0.01869
 31.990     0.01912
 32.000     0.01848
 32.010     0.01814
 32.020     0.01794
 32.030     0.01766
 32.040     0.01700
 32.050     0.01662
 32.060     0.01722
 32.070     0.01732
 32.080     0.01734
 32.090     0.01722
 32.100     0.01761
 32.110     0.01739
 32.120     0.01691
 32.130     0.01718
 32.140     0.01700
 32.150     0.01749
 32.160     0.01778
 32.170     0.01773
 32.180     0.01716
 32.190     0.01749
 32.200     0.01705
 32.210     0.01762
 32.220     0.01711
 32.230     0.01770
 32.240     0.01780
 32.250     0.01798
 32.260     0.01866
 32.270     0.01830
 32.280     0.01811
 32.290     0.01839
 32.300     0.01892
 32.310     0.01884
 32.320     0.01884
 32.330     0.01903
 32.340     0.01851
 32.350     0.01918
 32.360     0.01949
 32.370     0.01942
 32.380     0.01952
 32.390     0.02035
 32.400     0.01994
 32.410     0.02085
 32.420     0.02100
 32.430     0.02114
 32.440     0.02036
 32.450     0.02007
 32.460     0.02065
 32.470     0.02136
 32.480     0.02154
 32.490     0.02113
 32.500     0.02187
 32.510     0.02136
 32.520     0.02143
 32.530     0.02181
 32.540     0.02114
 32.550     0.02199
 32.560     0.02159
 32.570     0.02148
 32.580     0.02243
 32.590     0.02208
 32.600     0.02150
 32.610     0.02190
 32.620     0.02168
 32.630     0.02136
 32.640     0.02137
 32.650     0.02102
 32.660     0.02153
 32.670     0.02182
 32.680     0.02167
 32.690     0.02172
 32.700     0.02073
 32.710     0.02138
 32.720     0.02123
 32.730     0.02113
 32.740     0.02094
 32.750     0.02116
 32.760     0.02097
 32.770     0.02064
 32.780     0.02040
 32.790     0.02072
 32.800     0.01979
 32.810     0.02023
 32.820     0.02016
 32.830     0.02045
 32.840     0.02029
 32.850     0.01939
 32.860     0.01926
 32.870     0.02002
 32.880     0.01974
 32.890     0.01930
 32.900     0.01951
 32.910     0.01868
 32.920     0.01916
 32.930     0.01906
 32.940     0.01867
 32.950     0.01863
 32.960     0.01820
 32.970     0.01869
 32.980     0.01802
 32.990     0.01853
 33.000     0.01796
 33.010     0.01802
 33.020     0.01785
 33.030     0.01843
 33.040     0.01803
 33.050     0.01807
 33.060     0.01779
 33.070     0.01788
 33.080     0.01787
 33.090     0.01808
 33.100     0.01722
 33.110     0.01736
 33.120     0.01761
 33.130     0.01871
 33.140     0.01785
 33.150     0.01819
 33.160     0.01772
 33.170     0.01837
 33.180     0.01849
 33.190     0.01830
 33.200     0.01806
 33.210     0.01859
 33.220     0.01847
 33.230     0.01846
 33.240     0.01881
 33.250     0.01877
 33.260     0.01886
 33.270     0.01861
 33.280     0.01878
 33.290     0.01930
 33.300     0.01867
 33.310     0.01942
 33.320     0.01882
 33.330     0.01986
 33.340     0.01895
 33.350     0.01961
 33.360     0.01998
 33.370     0.01966
 33.380     0.01923
 33.390     0.01906
 33.400     0.01992
 33.410     0.01968
 33.420     0.01977
 33.430     0.01973
 33.440     0.02011
 33.450     0.02028
 33.460     0.01990
 33.470     0.02017
 33.480     0.01996
 33.490     0.01922
 33.500     0.02032
 33.510     0.02009
 33.520     0.01955
 33.530     0.02002
 33.540     0.01970
 33.550     0.01968
 33.560     0.01960
 33.570     0.01954
 33.580     0.01999
 33.590     0.01978
 33.600     0.02003
 33.610     0.02009
 33.620     0.01960
 33.630     0.01984
 33.640     0.01971
 33.650     0.01951
 33.660     0.02033
 33.670     0.01959
 33.680     0.01909
 33.690     0.02003
 33.700     0.01989
 33.710     0.01999
 33.720     0.01943
 33.730     0.01966
 33.740     0.01918
 33.750     0.01914
 33.760     0.02012
 33.770     0.01939
 33.780     0.01915
 33.790     0.01954
 33.800     0.01974
 33.810     0.01922
 33.820     0.01837
 33.830     0.01872
 33.840     0.01880
 33.850     0.01903
 33.860     0.01857
 33.870     0.01863
 33.880     0.01865
 33.890     0.01912
 33.900     0.01827
 33.910     0.01829
 33.920     0.01770
 33.930     0.01748
 33.940     0.01789
 33.950     0.01789
 33.960     0.01739
 33.970     0.01770
 33.980     0.01773
 33.990     0.01745
 34.000     0.01722
 34.010     0.01729
 34.020     0.01661
 34.030     0.01661
 34.040     0.01678
 34.050     0.01686
 34.060     0.01667
 34.070     0.01645
 34.080     0.01641
 34.090     0.01618
 34.100     0.01689
 34.110     0.01653
 34.120     0.01632
 34.130     0.01616
 34.140     0.01633
 34.150     0.01662
 34.160     0.01655
 34.170     0.01625
 34.180     0.01565
 34.190     0.01595
 34.200     0.01654
 34.210     0.01626
 34.220     0.01644
 34.230     0.01581
 34.240     0.01662
 34.250     0.01667
 34.260     0.01695
 34.270     0.01586
 34.280     0.01632
 34.290     0.01696
 34.300     0.01661
 34.310     0.01682
 34.320     0.01662
 34.330     0.01749
 34.340     0.01709
 34.350     0.01747
 34.360     0.01659
 34.370     0.01698
 34.380     0.01707
 34.390     0.01735
 34.400     0.01714
 34.410     0.01683
 34.420     0.01779
 34.430     0.01738
 34.440     0.01704
 34.450     0.01688
 34.460     0.01723
 34.470     0.01679
 34.480     0.01710
 34.490     0.01677
 34.500     0.01667
 34.510     0.01732
 34.520     0.01698
 34.530     0.01720
 34.540     0.01671
 34.550     0.01663
 34.560     0.01684
 34.570     0.01744
 34.580     0.01712
 34.590     0.01629
 34.600     0.01671
 34.610     0.01648
 34.620     0.01679
 34.630     0.01641
 34.640     0.01599
 34.650     0.01657
 34.660     0.01570
 34.670     0.01601
 34.680     0.01606
 34.690     0.01608
 34.700     0.01569
 34.710     0.01644
 34.720     0.01580
 34.730     0.01573
 34.740     0.01593
 34.750     0.01518
 34.760     0.01531
 34.770     0.01569
 34.780     0.01576
 34.790     0.01526
 34.800     0.01549
 34.810     0.01537
 34.820     0.01517
 34.830     0.01564
 34.840     0.01501
 34.850     0.01525
 34.860     0.01570
 34.870     0.01474
 34.880     0.01532
 34.890     0.01487
 34.900     0.01517
 34.910     0.01530
 34.920     0.01470
 34.930     0.01528
 34.940     0.01446
 34.950     0.01479
 34.960     0.01556
 34.970     0.01453
 34.980     0.01535
 34.990     0.01474
 35.000     0.01567
 35.010     0.01517
 35.020     0.01510
 35.030     0.01551
 35.040     0.01546
 35.050     0.01624
 35.060     0.01493
 35.070     0.01513
 35.080     0.01520
 35.090     0.01611
 35.100     0.01526
 35.110     0.01569
 35.120     0.01606
 35.130     0.01586
 35.140     0.01550
 35.150     0.01571
 35.160     0.01591
 35.170     0.01554
 35.180     0.01546
 35.190     0.01570
 35.200     0.01568
 35.210     0.01584
 35.220     0.01563
 35.230     0.01616
 35.240     0.01561
 35.250     0.01565
 35.260     0.01528
 35.270     0.01593
 35.280     0.01613
 35.290     0.01592
 35.300     0.01559
 35.310     0.01553
 35.320     0.01597
 35.330     0.01559
 35.340     0.01577
 35.350     0.01580
 35.360     0.01595
 35.370     0.01615
 35.380     0.01503
 35.390     0.01523
 35.400     0.01581
 35.410     0.01577
 35.420     0.01487
 35.430     0.01580
 35.440     0.01514
 35.450     0.01511
 35.460     0.01490
 35.470     0.01515
 35.480     0.01492
 35.490     0.01508
 35.500     0.01518
 35.510     0.01573
 35.520     0.01485
 35.530     0.01533
 35.540     0.01467
 35.550     0.01505
 35.560     0.01461
 35.570     0.01492
 35.580     0.01506
 35.590     0.01480
 35.600     0.01522
 35.610     0.01435
 35.620     0.01486
 35.630     0.01462
 35.640     0.01417
 35.650     0.01456
 35.660     0.01455
 35.670     0.01497
 35.680     0.01478
 35.690     0.01471
 35.700     0.01509
 35.710     0.01489
 35.720     0.01495
 35.730     0.01492
 35.740     0.01473
 35.750     0.01497
 35.760     0.01494
 35.770     0.01427
 35.780     0.01489
 35.790     0.01478
 35.800     0.01471
 35.810     0.01486
 35.820     0.01506
 35.830     0.01525
 35.840     0.01507
 35.850     0.01519
 35.860     0.01494
 35.870     0.01478
 35.880     0.01469
 35.890     0.01517
 35.900     0.01466
 35.910     0.01435
 35.920     0.01494
 35.930     0.01476
 35.940     0.01437
 35.950     0.01544
 35.960     0.01519
 35.970     0.01520
 35.980     0.01468
 35.990     0.01494
 36.000     0.01507
 36.010     0.01451
 36.020     0.01434
 36.030     0.01516
 36.040     0.01404
 36.050     0.01491
 36.060     0.01489
 36.070     0.01477
 36.080     0.01461
 36.090     0.01476
 36.100     0.01473
 36.110     0.01487
 36.120     0.01436
 36.130     0.01459
 36.140     0.01429
 36.150     0.01428
 36.160     0.01453
 36.170     0.01492
 36.180     0.01440
 36.190     0.01451
 36.200     0.01422
 36.210     0.01457
 36.220     0.01357
 36.230     0.01444
 36.240     0.01386
 36.250     0.01436
 36.260     0.01420
 36.270     0.01410
 36.280     0.01408
 36.290     0.01382
 36.300     0.01427
 36.310     0.01376
 36.320     0.01395
 36.330     0.01350
 36.340     0.01349
 36.350     0.01347
 36.360     0.01370
 36.370     0.01307
 36.380     0.01297
 36.390     0.01321
 36.400     0.01325
 36.410     0.01317
 36.420     0.01286
 36.430     0.01306
 36.440     0.01303
 36.450     0.01292
 36.460     0.01281
 36.470     0.01209
 36.480     0.01257
 36.490     0.01284
 36.500     0.01237
 36.510     0.01203
 36.520     0.01247
 36.530     0.01238
 36.540     0.01243
 36.550     0.01239
 36.560     0.01173
 36.570     0.01196
 36.580     0.01244
 36.590     0.01197
 36.600     0.01227
 36.610     0.01238
 36.620     0.01239
 36.630     0.01227
 36.640     0.01322
 36.650     0.01256
 36.660     0.01260
 36.670     0.01233
 36.680     0.01244
 36.690     0.01286
 36.700     0.01240
 36.710     0.01268
 36.720     0.01279
 36.730     0.01353
 36.740     0.01268
 36.750     0.01318
 36.760     0.01321
 36.770     0.01296
 36.780     0.01332
 36.790     0.01318
 36.800     0.01350
 36.810     0.01309
 36.820     0.01350
 36.830     0.01327
 36.840     0.01382
 36.850     0.01266
 36.860     0.01355
 36.870     0.01356
 36.880     0.01325
 36.890     0.01314
 36.900     0.01382
 36.910     0.01328
 36.920     0.01317
 36.930     0.01353
 36.940     0.01381
 36.950     0.01364
 36.960     0.01335
 36.970     0.01315
 36.980     0.01377
 36.990     0.01320
 37.000     0.01335
 37.010     0.01274
 37.020     0.01300
 37.030     0.01305
 37.040     0.01287
 37.050     0.01295
 37.060     0.01284
 37.070     0.01312
 37.080     0.01242
 37.090     0.01249
 37.100     0.01282
 37.110     0.01219
 37.120     0.01209
 37.130     0.01232
 37.140     0.01189
 37.150     0.01193
 37.160     0.01175
 37.170     0.01208
 37.180     0.01131
 37.190     0.01169
 37.200     0.01155
 37.210     0.01133
 37.220     0.01103
 37.230     0.01145
 37.240     0.01131
 37.250     0.01102
 37.260     0.01116
 37.270     0.01109
 37.280     0.01104
 37.290     0.01120
 37.300     0.01114
 37.310     0.01109
 37.320     0.01057
 37.330     0.01091
 37.340     0.01044
 37.350     0.01058
 37.360     0.01042
 37.370     0.01027
 37.380     0.01059
 37.390     0.01115
 37.400     0.01063
 37.410     0.01055
 37.420     0.01061
 37.430     0.01069
 37.440     0.01056
 37.450     0.01058
 37.460     0.01025
 37.470     0.01067
 37.480     0.01101
 37.490     0.01132
 37.500     0.01063
 37.510     0.01072
 37.520     0.01094
 37.530     0.01074
 37.540     0.01031
 37.550     0.01021
 37.560     0.01055
 37.570     0.01094
 37.580     0.01073
 37.590     0.01098
 37.600     0.01087
 37.610     0.01074
 37.620     0.01057
 37.630     0.01127
 37.640     0.01068
 37.650     0.01088
 37.660     0.01114
 37.670     0.01039
 37.680     0.01081
 37.690     0.01093
 37.700     0.01086
 37.710     0.01132
 37.720     0.01114
 37.730     0.01093
 37.740     0.01119
 37.750     0.01103
 37.760     0.01135
 37.770     0.01092
 37.780     0.01061
 37.790     0.01088
 37.800     0.01085
 37.810     0.01060
 37.820     0.01118
 37.830     0.01056
 37.840     0.01093
 37.850     0.01095
 37.860     0.01089
 37.870     0.01097
 37.880     0.01074
 37.890     0.01069
 37.900     0.01092
 37.910     0.01108
 37.920     0.01089
 37.930     0.01135
 37.940     0.01117
 37.950     0.01112
 37.960     0.01117
 37.970     0.01131
 37.980     0.01044
 37.990     0.01171
 38.000     0.01092
 38.010     0.01116
 38.020     0.01144
 38.030     0.01120
 38.040     0.01095
 38.050     0.01118
 38.060     0.01176
 38.070     0.01149
 38.080     0.01133
 38.090     0.01158
 38.100     0.01162
 38.110     0.01135
 38.120     0.01142
 38.130     0.01168
 38.140     0.01120
 38.150     0.01137
 38.160     0.01140
 38.170     0.01088
 38.180     0.01114
 38.190     0.01165
 38.200     0.01130
 38.210     0.01157
 38.220     0.01149
 38.230     0.01160
 38.240     0.01171
 38.250     0.01135
 38.260     0.01115
 38.270     0.01132
 38.280     0.01123
 38.290     0.01121
 38.300     0.01150
 38.310     0.01109
 38.320     0.01105
 38.330     0.01128
 38.340     0.01147
 38.350     0.01166
 38.360     0.01139
 38.370     0.01127
 38.380     0.01095
 38.390     0.01113
 38.400     0.01098
 38.410     0.01087
 38.420     0.01110
 38.430     0.01108
 38.440     0.01067
 38.450     0.01082
 38.460     0.01120
 38.470     0.01070
 38.480     0.01096
 38.490     0.01072
 38.500     0.01038
 38.510     0.01082
 38.520     0.00999
 38.530     0.01054
 38.540     0.01079
 38.550     0.01033
 38.560     0.01016
 38.570     0.01036
 38.580     0.01043
 38.590     0.00995
 38.600     0.01019
 38.610     0.00990
 38.620     0.00989
 38.630     0.01026
 38.640     0.01016
 38.650     0.00950
 38.660     0.00999
 38.670     0.00989
 38.680     0.00995
 38.690     0.00988
 38.700     0.00969
 38.710     0.00953
 38.720     0.00962
 38.730     0.00983
 38.740     0.00933
 38.750     0.00895
 38.760     0.00908
 38.770     0.00939
 38.780     0.00920
 38.790     0.00918
 38.800     0.00911
 38.810     0.00908
 38.820     0.00897
 38.830     0.00947
 38.840     0.00879
 38.850     0.00912
 38.860     0.00872
 38.870     0.00892
 38.880     0.00837
 38.890     0.00856
 38.900     0.00856
 38.910     0.00843
 38.920     0.00894
 38.930     0.00883
 38.940     0.00857
 38.950     0.00831
 38.960     0.00880
 38.970     0.00874
 38.980     0.00848
 38.990     0.00836
 39.000     0.00816
 39.010     0.00825
 39.020     0.00837
 39.030     0.00861
 39.040     0.00826
 39.050     0.00808
 39.060     0.00848
 39.070     0.00807
 39.080     0.00866
 39.090     0.00838
 39.100     0.00847
 39.110     0.00831
 39.120     0.00802
 39.130     0.00850
 39.140     0.00860
 39.150     0.00845
 39.160     0.00835
 39.170     0.00790
 39.180     0.00848
 39.190     0.00820
 39.200     0.00852
 39.210     0.00862
 39.220     0.00856
 39.230     0.00857
 39.240     0.00815
 39.250     0.00851
 39.260     0.00866
 39.270     0.00869
 39.280     0.00865
 39.290     0.00813
 39.300     0.00830
 39.310     0.00819
 39.320     0.00812
 39.330     0.00878
 39.340     0.00848
 39.350     0.00878
 39.360     0.00823
 39.370     0.00834
 39.380     0.00816
 39.390     0.00849
 39.400     0.00857
 39.410     0.00823
 39.420     0.00844
 39.430     0.00858
 39.440     0.00873
 39.450     0.00831
 39.460     0.00826
 39.470     0.00858
 39.480     0.00846
 39.490     0.00793
 39.500     0.00813
 39.510     0.00835
 39.520     0.00839
 39.530     0.00819
 39.540     0.00833
 39.550     0.00803
 39.560     0.00813
 39.570     0.00813
 39.580     0.00810
 39.590     0.00829
 39.600     0.00844
 39.610     0.00799
 39.620     0.00816
 39.630     0.00800
 39.640     0.00801
 39.650     0.00815
 39.660     0.00793
 39.670     0.00789
 39.680     0.00808
 39.690     0.00809
 39.700     0.00818
 39.710     0.00784
 39.720     0.00785
 39.730     0.00747
 39.740     0.00780
 39.750     0.00759
 39.760     0.00794
 39.770     0.00751
 39.780     0.00762
 39.790     0.00751
 39.800     0.00806
 39.810     0.00779
 39.820     0.00756
 39.830     0.00757
 39.840     0.00779
 39.850     0.00756
 39.860     0.00792
 39.870     0.00738
 39.880     0.00764
 39.890     0.00740
 39.900     0.00754
 39.910     0.00725
 39.920     0.00738
 39.930     0.00749
 39.940     0.00734
 39.950     0.00726
 39.960     0.00758
 39.970     0.00758
 39.980     0.00711
 39.990     0.00758
 40.000     0.00724
 40.010     0.00715
 40.020     0.00733
 40.030     0.00717
 40.040     0.00725
 40.050     0.00737
 40.060     0.00749
 40.070     0.00721
 40.080     0.00713
 40.090     0.00774
 40.100     0.00779
 40.110     0.00740
 40.120     0.00701
 40.130     0.00721
 40.140     0.00760
 40.150     0.00767
 40.160     0.00739
 40.170     0.00762
 40.180     0.00739
 40.190     0.00711
 40.200     0.00751
 40.210     0.00699
 40.220     0.00714
 40.230     0.00759
 40.240     0.00728
 40.250     0.00719
 40.260     0.00736
 40.270     0.00710
 40.280     0.00769
 40.290     0.00729
 40.300     0.00731
 40.310     0.00745
 40.320     0.00713
 40.330     0.00789
 40.340     0.00734
 40.350     0.00771
 40.360     0.00783
 40.370     0.00736
 40.380     0.00730
 40.390     0.00747
 40.400     0.00784
 40.410     0.00777
 40.420     0.00803
 40.430     0.00782
 40.440     0.00721
 40.450     0.00758
 40.460     0.00781
 40.470     0.00773
 40.480     0.00769
 40.490     0.00744
 40.500     0.00752
 40.510     0.00729
 40.520     0.00760
 40.530     0.00722
 40.540     0.00747
 40.550     0.00741
 40.560     0.00742
 40.570     0.00733
 40.580     0.00744
 40.590     0.00746
 40.600     0.00749
 40.610     0.00779
 40.620     0.00723
 40.630     0.00708
 40.640     0.00735
 40.650     0.00706
 40.660     0.00720
 40.670     0.00737
 40.680     0.00718
 40.690     0.00715
 40.700     0.00687
 40.710     0.00708
 40.720     0.00732
 40.730     0.00702
 40.740     0.00673
 40.750     0.00693
 40.760     0.00695
 40.770     0.00682
 40.780     0.00695
 40.790     0.00680
 40.800     0.00651
 40.810     0.00677
 40.820     0.00683
 40.830     0.00669
 40.840     0.00645
 40.850     0.00680
 40.860     0.00679
 40.870     0.00676
 40.880     0.00661
 40.890     0.00636
 40.900     0.00644
 40.910     0.00654
 40.920     0.00654
 40.930     0.00632
 40.940     0.00655
 40.950     0.00647
 40.960     0.00641
 40.970     0.00611
 40.980     0.00613
 40.990     0.00625
 41.000     0.00596
 41.010     0.00629
 41.020     0.00612
 41.030     0.00618
 41.040     0.00570
 41.050     0.00583
 41.060     0.00582
 41.070     0.00579
 41.080     0.00595
 41.090     0.00574
 41.100     0.00558
 41.110     0.00552
 41.120     0.00589
 41.130     0.00587
 41.140     0.00575
 41.150     0.00579
 41.160     0.00568
 41.170     0.00570
 41.180     0.00565
 41.190     0.00565
 41.200     0.00546
 41.210     0.00520
 41.220     0.00541
 41.230     0.00558
 41.240     0.00545
 41.250     0.00551
 41.260     0.00541
 41.270     0.00531
 41.280     0.00528
 41.290     0.00544
 41.300     0.00546
 41.310     0.00518
 41.320     0.00547
 41.330     0.00522
 41.340     0.00537
 41.350     0.00544
 41.360     0.00527
 41.370     0.00532
 41.380     0.00530
 41.390     0.00537
 41.400     0.00516
 41.410     0.00529
 41.420     0.00513
 41.430     0.00513
 41.440     0.00509
 41.450     0.00500
 41.460     0.00520
 41.470     0.00477
 41.480     0.00521
 41.490     0.00505
 41.500     0.00506
 41.510     0.00490
 41.520     0.00507
 41.530     0.00493
 41.540     0.00494
 41.550     0.00483
 41.560     0.00498
 41.570     0.00490
 41.580     0.00491
 41.590     0.00512
 41.600     0.00509
 41.610     0.00486
 41.620     0.00499
 41.630     0.00456
 41.640     0.00464
 41.650     0.00494
 41.660     0.00430
 41.670     0.00475
 41.680     0.00467
 41.690     0.00513
 41.700     0.00470
 41.710     0.00480
 41.720     0.00475
 41.730     0.00460
 41.740     0.00476
 41.750     0.00485
 41.760     0.00472
 41.770     0.00463
 41.780     0.00461
 41.790     0.00476
 41.800     0.00491
 41.810     0.00486
 41.820     0.00513
 41.830     0.00506
 41.840     0.00482
 41.850     0.00485
 41.860     0.00507
 41.870     0.00490
 41.880     0.00470
 41.890     0.00493
 41.900     0.00505
 41.910     0.00493
 41.920     0.00479
 41.930     0.00464
 41.940     0.00485
 41.950     0.00487
 41.960     0.00488
 41.970     0.00469
 41.980     0.00473
 41.990     0.00478
 42.000     0.00524
 42.010     0.00537
 42.020     0.00478
 42.030     0.00484
 42.040     0.00495
 42.050     0.00470
 42.060     0.00470
 42.070     0.00502
 42.080     0.00514
 42.090     0.00514
 42.100     0.00486
 42.110     0.00485
 42.120     0.00496
 42.130     0.00509
 42.140     0.00501
 42.150     0.00504
 42.160     0.00462
 42.170     0.00476
 42.180     0.00462
 42.190     0.00482
 42.200     0.00472
 42.210     0.00509
 42.220     0.00496
 42.230     0.00495
 42.240     0.00480
 42.250     0.00463
 42.260     0.00478
 42.270     0.00457
 42.280     0.00476
 42.290     0.00468
 42.300     0.00461
 42.310     0.00473
 42.320     0.00462
 42.330     0.00450
 42.340     0.00443
 42.350     0.00482
 42.360     0.00478
 42.370     0.00448
 42.380     0.00435
 42.390     0.00449
 42.400     0.00438
 42.410     0.00435
 42.420     0.00485
 42.430     0.00426
 42.440     0.00478
 42.450     0.00397
 42.460     0.00450
 42.470     0.00467
 42.480     0.00422
 42.490     0.00450
 42.500     0.00414
 42.510     0.00426
 42.520     0.00423
 42.530     0.00434
 42.540     0.00469
 42.550     0.00432
 42.560     0.00427
 42.570     0.00437
 42.580     0.00445
 42.590     0.00428
 42.600     0.00419
 42.610     0.00449
 42.620     0.00442
 42.630     0.00438
 42.640     0.00455
 42.650     0.00422
 42.660     0.00454
 42.670     0.00389
 42.680     0.00408
 42.690     0.00418
 42.700     0.00403
 42.710     0.00410
 42.720     0.00403
 42.730     0.00409
 42.740     0.00392
 42.750     0.00412
 42.760     0.00402
 42.770     0.00411
 42.780     0.00418
 42.790     0.00401
 42.800     0.00384
 42.810     0.00401
 42.820     0.00398
 42.830     0.00404
 42.840     0.00390
 42.850     0.00385
 42.860     0.00387
 42.870     0.00395
 42.880     0.00395
 42.890     0.00387
 42.900     0.00392
 42.910     0.00382
 42.920     0.00387
 42.930     0.00395
 42.940     0.00372
 42.950     0.00382
 42.960     0.00379
 42.970     0.00378
 42.980     0.00368
 42.990     0.00388
 43.000     0.00368
 43.010     0.00364
 43.020     0.00382
 43.030     0.00373
 43.040     0.00366
 43.050     0.00339
 43.060     0.00363
 43.070     0.00355
 43.080     0.00355
 43.090     0.00354
 43.100     0.00357
 43.110     0.00346
 43.120     0.00357
 43.130     0.00360
 43.140     0.00324
 43.150     0.00325
 43.160     0.00356
 43.170     0.00331
 43.180     0.00323
 43.190     0.00333
 43.200     0.00329
 43.210     0.00305
 43.220     0.00315
 43.230     0.00329
 43.240     0.00294
 43.250     0.00318
 43.260     0.00307
 43.270     0.00326
 43.280     0.00300
 43.290     0.00300
 43.300     0.00352
 43.310     0.00326
 43.320     0.00310
 43.330     0.00314
 43.340     0.00305
 43.350     0.00294
 43.360     0.00316
 43.370     0.00308
 43.380     0.00315
 43.390     0.00291
 43.400     0.00301
 43.410     0.00308
 43.420     0.00302
 43.430     0.00291
 43.440     0.00298
 43.450     0.00310
 43.460     0.00289
 43.470     0.00302
 43.480     0.00288
 43.490     0.00289
 43.500     0.00285
 43.510     0.00302
 43.520     0.00297
 43.530     0.00301
 43.540     0.00295
 43.550     0.00298
 43.560     0.00305
 43.570     0.00276
 43.580     0.00290
 43.590     0.00277
 43.600     0.00286
 43.610     0.00284
 43.620     0.00280
 43.630     0.00286
 43.640     0.00264
 43.650     0.00297
 43.660     0.00267
 43.670     0.00243
 43.680     0.00264
 43.690     0.00245
 43.700     0.00262
 43.710     0.00270
 43.720     0.00260
 43.730     0.00274
 43.740     0.00261
 43.750     0.00273
 43.760     0.00268
 43.770     0.00238
 43.780     0.00265
 43.790     0.00272
 43.800     0.00254
 43.810     0.00245
 43.820     0.00260
 43.830     0.00253
 43.840     0.00284
 43.850     0.00262
 43.860     0.00246
 43.870     0.00253
 43.880     0.00251
 43.890     0.00243
 43.900     0.00272
 43.910     0.00286
 43.920     0.00257
 43.930     0.00242
 43.940     0.00268
 43.950     0.00263
 43.960     0.00274
 43.970     0.00249
 43.980     0.00289
 43.990     0.00235
 44.000     0.00254
 44.010     0.00252
 44.020     0.00277
 44.030     0.00242
 44.040     0.00258
 44.050     0.00231
 44.060     0.00239
 44.070     0.00261
 44.080     0.00223
 44.090     0.00247
 44.100     0.00254
 44.110     0.00239
 44.120     0.00218
 44.130     0.00240
 44.140     0.00249
 44.150     0.00238
 44.160     0.00245
 44.170     0.00252
 44.180     0.00236
 44.190     0.00250
 44.200     0.00230
 44.210     0.00239
 44.220     0.00236
 44.230     0.00256
 44.240     0.00230
 44.250     0.00239
 44.260     0.00230
 44.270     0.00226
 44.280     0.00232
 44.290     0.00241
 44.300     0.00223
 44.310     0.00234
 44.320     0.00214
 44.330     0.00232
 44.340     0.00228
 44.350     0.00234
 44.360     0.00221
 44.370     0.00211
 44.380     0.00230
 44.390     0.00232
 44.400     0.00214
 44.410     0.00201
 44.420     0.00217
 44.430     0.00202
 44.440     0.00212
 44.450     0.00201
 44.460     0.00201
 44.470     0.00203
 44.480     0.00209
 44.490     0.00203
 44.500     0.00210
 44.510     0.00221
 44.520     0.00225
 44.530     0.00220
 44.540     0.00199
 44.550     0.00191
 44.560     0.00206
 44.570     0.00196
 44.580     0.00195
 44.590     0.00207
 44.600     0.00203
 44.610     0.00197
 44.620     0.00208
 44.630     0.00207
 44.640     0.00186
 44.650     0.00193
 44.660     0.00209
 44.670     0.00206
 44.680     0.00180
 44.690     0.00211
 44.700     0.00187
 44.710     0.00191
 44.720     0.00203
 44.730     0.00185
 44.740     0.00196
 44.750     0.00200
 44.760     0.00201
 44.770     0.00194
 44.780     0.00182
 44.790     0.00184
 44.800     0.00188
 44.810     0.00189
 44.820     0.00191
 44.830     0.00201
 44.840     0.00176
 44.850     0.00190
 44.860     0.00165
 44.870     0.00195
 44.880     0.00183
 44.890     0.00169
 44.900     0.00180
 44.910     0.00185
 44.920     0.00174
 44.930     0.00190
 44.940     0.00177
 44.950     0.00181
 44.960     0.00197
 44.970     0.00176
 44.980     0.00185
 44.990     0.00175
 45.000     0.00185
 45.010     0.00171
 45.020     0.00168
 45.030     0.00183
 45.040     0.00180
 45.050     0.00167
 45.060     0.00190
 45.070     0.00161
 45.080     0.00168
 45.090     0.00168
 45.100     0.00159
 45.110     0.00165
 45.120     0.00154
 45.130     0.00161
 45.140     0.00153
 45.150     0.00149
 45.160     0.00150
 45.170     0.00170
 45.180     0.00148
 45.190     0.00153
 45.200     0.00164
 45.210     0.00147
 45.220     0.00152
 45.230     0.00153
 45.240     0.00150
 45.250     0.00143
 45.260     0.00140
 45.270     0.00154
 45.280     0.00149
 45.290     0.00151
 45.300     0.00149
 45.310     0.00149
 45.320     0.00136
 45.330     0.00140
 45.340     0.00133
 45.350     0.00139
 45.360     0.00132
 45.370     0.00138
 45.380     0.00141
 45.390     0.00132
 45.400     0.00136
 45.410     0.00119
 45.420     0.00136
 45.430     0.00128
 45.440     0.00145
 45.450     0.00145
 45.460     0.00139
 45.470     0.00120
 45.480     0.00117
 45.490     0.00131
 45.500     0.00121
 45.510     0.00115
 45.520     0.00128
 45.530     0.00124
 45.540     0.00125
 45.550     0.00112
 45.560     0.00126
 45.570     0.00120
 45.580     0.00120
 45.590     0.00112
 45.600     0.00102
 45.610     0.00115
 45.620     0.00124
 45.630     0.00108
 45.640     0.00106
 45.650     0.00101
 45.660     0.00114
 45.670     0.00107
 45.680     0.00103
 45.690     0.00112
 45.700     0.00094
 45.710     0.00106
 45.720     0.00127
 45.730     0.00111
 45.740     0.00112
 45.750     0.00099
 45.760     0.00097
 45.770     0.00106
 45.780     0.00093
 45.790     0.00097
 45.800     0.00093
 45.810     0.00097
 45.820     0.00105
 45.830     0.00094
 45.840     0.00113
 45.850     0.00110
 45.860     0.00098
 45.870     0.00087
 45.880     0.00108
 45.890     0.00096
 45.900     0.00102
 45.910     0.00094
 45.920     0.00095
 45.930     0.00111
 45.940     0.00088
 45.950     0.00088
 45.960     0.00094
 45.970     0.00098
 45.980     0.00095
 45.990     0.00087
 46.000     0.00104
 46.010     0.00093
 46.020     0.00102
 46.030     0.00088
 46.040     0.00103
 46.050     0.00091
 46.060     0.00096
 46.070     0.00089
 46.080     0.00087
 46.090     0.00100
 46.100     0.00091
 46.110     0.00099
 46.120     0.00072
 46.130     0.00095
 46.140     0.00084
 46.150     0.00076
 46.160     0.00080
 46.170     0.00083
 46.180     0.00084
 46.190     0.00085
 46.200     0.00074
 46.210     0.00087
 46.220     0.00079
 46.230     0.00082
 46.240     0.00073
 46.250     0.00094
 46.260     0.00081
 46.270     0.00080
 46.280     0.00067
 46.290     0.00086
 46.300     0.00080
 46.310     0.00091
 46.320     0.00073
 46.330     0.00079
 46.340     0.00079
 46.350     0.00064
 46.360     0.00068
 46.370     0.00073
 46.380     0.00073
 46.390     0.00074
 46.400     0.00069
 46.410     0.00075
 46.420     0.00061
 46.430     0.00073
 46.440     0.00058
 46.450     0.00065
 46.460     0.00076
 46.470     0.00069
 46.480     0.00073
 46.490     0.00063
 46.500     0.00081
 46.510     0.00062
 46.520     0.00068
 46.530     0.00054
 46.540     0.00062
 46.550     0.00057
 46.560     0.00058
 46.570     0.00061
 46.580     0.00060
 46.590     0.00060
 46.600     0.00063
 46.610     0.00053
 46.620     0.00046
 46.630     0.00058
 46.640     0.00053
 46.650     0.00048
 46.660     0.00052
 46.670     0.00055
 46.680     0.00053
 46.690     0.00058
 46.700     0.00050
 46.710     0.00055
 46.720     0.00046
 46.730     0.00056
 46.740     0.00053
 46.750     0.00049
 46.760     0.00043
 46.770     0.00046
 46.780     0.00055
 46.790     0.00044
 46.800     0.00049
 46.810     0.00042
 46.820     0.00043
 46.830     0.00047
 46.840     0.00053
 46.850     0.00046
 46.860     0.00051
 46.870     0.00045
 46.880     0.00043
 46.890     0.00041
 46.900     0.00038
 46.910     0.00042
 46.920     0.00044
 46.930     0.00038
 46.940     0.00051
 46.950     0.00038
 46.960     0.00034
 46.970     0.00037
 46.980     0.00044
 46.990     0.00045
 47.000     0.00038
 47.010     0.00031
 47.020     0.00038
 47.030     0.00036
 47.040     0.00033
 47.050     0.00036
 47.060     0.00030
 47.070     0.00043
 47.080     0.00032
 47.090     0.00033
 47.100     0.00032
 47.110     0.00029
 47.120     0.00042
 47.130     0.00040
 47.140     0.00035
 47.150     0.00028
 47.160     0.00029
 47.170     0.00030
 47.180     0.00031
 47.190     0.00033
 47.200     0.00029
 47.210     0.00025
 47.220     0.00027
 47.230     0.00024
 47.240     0.00028
 47.250     0.00023
 47.260     0.00032
 47.270     0.00033
 47.280     0.00024
 47.290     0.00022
 47.300     0.00024
 47.310     0.00030
 47.320     0.00028
 47.330     0.00023
 47.340     0.00024
 47.350     0.00023
 47.360     0.00018
 47.370     0.00024
 47.380     0.00016
 47.390     0.00028
 47.400     0.00030
 47.410     0.00031
 47.420     0.00025
 47.430     0.00026
 47.440     0.00019
 47.450     0.00022
 47.460     0.00028
 47.470     0.00023
 47.480     0.00025
 47.490     0.00025
 47.500     0.00019
 47.510     0.00018
 47.520     0.00021
 47.530     0.00013
 47.540     0.00021
 47.550     0.00018
 47.560     0.00017
 47.570     0.00014
 47.580     0.00022
 47.590     0.00021
 47.600     0.00019
 47.610     0.00016
 47.620     0.00014
 47.630     0.00017
 47.640     0.00014
 47.650     0.00013
 47.660     0.00011
 47.670     0.00011
 47.680     0.00012
 47.690     0.00014
 47.700     0.00011
 47.710     0.00013
 47.720     0.00014
 47.730     0.00011
 47.740     0.00011
 47.750     0.00013
 47.760     0.00012
 47.770     0.00015
 47.780     0.00011
 47.790     0.00011
 47.800     0.00012
 47.810     0.00009
 47.820     0.00005
 47.830     0.00010
 47.840     0.00008
 47.850     0.00012
 47.860     0.00013
 47.870     0.00008
 47.880     0.00013
 47.890     0.00005
 47.900     0.00005
 47.910     0.00006
 47.920     0.00007
 47.930     0.00007
 47.940     0.00008
 47.950     0.00006
 47.960     0.00008
 47.970     0.00008
 47.980     0.00007
 47.990     0.00005
 48.000     0.00005
 48.010     0.00009
 48.020     0.00006
 48.030     0.00006
 48.040     0.00006
 48.050     0.00004
 48.060     0.00005
 48.070     0.00005
 48.080     0.00005
 48.090     0.00005
 48.100     0.00006
 48.110     0.00006
 48.120     0.00002
 48.130     0.00003
 48.140     0.00004
 48.150     0.00005
 48.160     0.00004
 48.170     0.00004
 48.180     0.00004
 48.190     0.00004
 48.200     0.00006
 48.210     0.00002
 48.220     0.00005
 48.230     0.00002
 48.240     0.00005
 48.250     0.00004
 48.260     0.00001
 48.270     0.00004
 48.280     0.00005
 48.290     0.00004
 48.300     0.00004
 48.310     0.00003
 48.320     0.00004
 48.330     0.00002
 48.340     0.00006
 48.350     0.00003
 48.360     0.00004
 48.370     0.00003
 48.380     0.00005
 48.390     0.00003
 48.400     0.00001
 48.410     0.00002
 48.420     0.00001
 48.430     0.00002
 48.440     0.00003
 48.450     0.00002
 48.460     0.00004
 48.470     0.00003
 48.480     0.00002
 48.490     0.00000
 48.500     0.00003
 48.510     0.00002
 48.520     0.00002
 48.530     0.00003
 48.540     0.00004
 48.550     0.00002
 48.560     0.00000
 48.570     0.00003
 48.580     0.00002
 48.590     0.00001
 48.600     0.00000
 48.610     0.00002
 48.620     0.00001
 48.630     0.00000
 48.640     0.00003
 48.650     0.00001
 48.660     0.00002
 48.670     0.00002
 48.680     0.00001
 48.690     0.00000
 48.700     0.00002
 48.710     0.00002
 48.720     0.00002
 48.730     0.00001
 48.740     0.00001
 48.750     0.00001
 48.760     0.00001
 48.770     0.00003
 48.780     0.00000
 48.790     0.00001
 48.800     0.00001
 48.810     0.00002
 48.820     0.00001
 48.830     0.00001
 48.840     0.00001
 48.850     0.00001
 48.860     0.00000
 48.870     0.00001
 48.880     0.00000
 48.890     0.00001
 48.900     0.00000
 48.910     0.00000
 48.920     0.00000
 48.930     0.00000
 48.940     0.00000
 48.950     0.00002
 48.960     0.00003
 48.970     0.00000
 48.980     0.00000
 48.990     0.00000
 49.000     0.00002
 49.010     0.00001
 49.020     0.00000
 49.030     0.00000
 49.040     0.00001
 49.050     0.00000
 49.060     0.00000
 49.070     0.00001
 49.080     0.00000
 49.090     0.00000
 49.100     0.00000
 49.110     0.00000
 49.120     0.00000
 49.130     0.00000
 49.140     0.00000
 49.150     0.00000
 49.160     0.00000
 49.170     0.00000
 49.180     0.00000
 49.190     0.00000
 49.200     0.00000
 49.210     0.00000
 49.220     0.00000
 49.230     0.00000
 49.240     0.00000
 49.250     0.00000
 49.260     0.00000
 49.270     0.00001
 49.280     0.00000
 49.290     0.00000
 49.300     0.00000
 49.310     0.00000
 49.320     0.00001
 49.330     0.00000
 49.340     0.00000
 49.350     0.00000
 49.360     0.00000
 49.370     0.00000
 49.380     0.00000
 49.390     0.00000
 49.400     0.00000
 49.410     0.00000
 49.420     0.00000
 49.430     0.00000
 49.440     0.00000
 49.450     0.00000
 49.460     0.00000
 49.470     0.00000
 49.480     0.00000
 49.490     0.00000
 49.500     0.00000
 49.510     0.00000
 49.520     0.00000
 49.530     0.00000
 49.540     0.00000
 49.550     0.00000
 49.560     0.00000
 49.570     0.00000
 49.580     0.00000
 49.590     0.00000
 49.600     0.00000
 49.610     0.00000
 49.620     0.00000
 49.630     0.00000
 49.640     0.00000
 49.650     0.00000
 49.660     0.00000
 49.670     0.00000
 49.680     0.00000
 49.690     0.00000
 49.700     0.00000
 49.710     0.00000
 49.720     0.00000
 49.730     0.00000
 49.740     0.00000
 49.750     0.00000
 49.760     0.00000
 49.770     0.00000
 49.780     0.00000
 49.790     0.00000
 49.800     0.00000
 49.810     0.00000
 49.820     0.00000
 49.830     0.00000
 49.840     0.00000
 49.850     0.00000
 49.860     0.00000
 49.870     0.00000
 49.880     0.00000
 49.890     0.00000
 49.900     0.00000
 49.910     0.00000
 49.920     0.00000
 49.930     0.00000
 49.940     0.00000
 49.950     0.00000
 49.960     0.00000
 49.970     0.00000
 49.980     0.00000
 49.990     0.00000
 50.000     0.00000
 50.010     0.00000
 50.020     0.00000
 50.030     0.00000
 50.040     0.00000
 50.050     0.00000
 50.060     0.00000
 50.070     0.00000
 50.080     0.00000
 50.090     0.00000
 50.100     0.00000
 50.110     0.00000
 50.120     0.00000
 50.130     0.00000
 50.140     0.00000
 50.150     0.00000
 50.160     0.00000
 50.170     0.00000
 50.180     0.00000
 50.190     0.00000
 50.200     0.00000
 50.210     0.00000
 50.220     0.00000
 50.230     0.00000
 50.240     0.00000
 50.250     0.00000
 50.260     0.00000
 50.270     0.00000
 50.280     0.00000
 50.290     0.00000
 50.300     0.00000
 50.310     0.00000
 50.320     0.00000
 50.330     0.00000
 50.340     0.00000
 50.350     0.00000
 50.360     0.00000
 50.370     0.00000
 50.380     0.00000
 50.390     0.00000
 50.400     0.00000
 50.410     0.00000
 50.420     0.00000
 50.430     0.00000
